SessionID,LoggingTime,UID,RecNo,Hertz,Activity,MoveType,Wrist,Side,TimeStamp,DMRoll,DMPitch,DMYaw,DMRotX,DMRotY,DMRotZ,DMGrvX,DMGrvY,DMGrvZ,DMUAccelX,DMUAccelY,DMUAccelZ,DMQuatX,DMQuatY,DMQuatW,DMQuatZ,AccelroX,AceelroY,AceelroZ
20230215-1536,2023-02-15 15:36:48Z,u02, 662,100,movements,misc1, lt, nd,281463.7601024167, -0.8724624217229988, -0.2121690423166985, 0.5319570296764434, 0.038803089410066605, 0.18746720254421234, 0.016966506838798523, -0.7487399578094482, 0.21058079600334167, -0.62852543592453, 0.04505038261413574, -0.06719395518302917, 0.06785649061203003, 0.017843414676865444, -0.4306029290334975, 0.8578034373487681,0.280064378193756,-0.7036895751953125,0.1433868408203125,-0.5606689453125
20230215-1536,2023-02-15 15:36:48Z,u02, 663,100,movements,misc1, lt, nd,281463.7701254167, -0.8703417176326784, -0.21155010602866003, 0.5325936855755141, 0.11075397580862045, 0.21347403526306152, 0.0013808893272653222, -0.7475048303604126, 0.2099757045507431, -0.6301957368850708, 0.07625550031661987, -0.0735774040222168, 0.044410884380340576, 0.017956079357070727, -0.429627393507422, 0.8582330325571114,0.28023899887121506,-0.6712493896484375,0.1363983154296875,-0.585784912109375
20230215-1536,2023-02-15 15:36:48Z,u02, 664,100,movements,misc1, lt, nd,281463.7801484167, -0.8678557108702764, -0.21051513449000572, 0.5335410016520258, 0.13090825080871582, 0.23806433379650116, -0.014423320069909096, -0.7461012601852417, 0.20896369218826294, -0.6321922540664673, 0.0762556791305542, -0.10454779863357544, 0.022313714027404785, 0.018267160237395733, -0.4284509096091381, 0.8587382652591902,0.28047216520984014,-0.6698455810546875,0.1044158935546875,-0.6098785400390625
20230215-1536,2023-02-15 15:36:48Z,u02, 665,100,movements,misc1, lt, nd,281463.7901714167, -0.8652677083944107, -0.20948459954082757, 0.5342799109097401, 0.08454474806785583, 0.25047677755355835, -0.01740126684308052, -0.7446261644363403, 0.20795579254627228, -0.634260356426239, 0.06617468595504761, -0.07149647176265717, 0.04327225685119629, 0.01851677927986474, -0.4272317230512871, 0.8592923221451795,0.2806187300630196,-0.6784515380859375,0.1364593505859375,-0.5909881591796875
20230215-1536,2023-02-15 15:36:48Z,u02, 666,100,movements,misc1, lt, nd,281463.80019441666, -0.8627756116317536, -0.20882067680117075, 0.5345709977363935, 0.020240304991602898, 0.22662445902824402, -0.019996970891952515, -0.7431479692459106, 0.20730634033679962, -0.6362037062644958, 0.07615578174591064, -0.07151837646961212, 0.09120559692382812, 0.018522204049237045, -0.42609278884167245, 0.8598499745745528,0.2806418933009594,-0.6669921875,0.1357879638671875,-0.5449981689453125
20230215-1536,2023-02-15 15:36:48Z,u02, 667,100,movements,misc1, lt, nd,281463.81021641666, -0.8606825252347732, -0.20863598904082462, 0.5343770900677244, -0.050541721284389496, 0.2055862843990326, -0.00561616662889719, -0.7418437004089355, 0.20712566375732422, -0.6377826929092407, 0.05898243188858032, -0.09109784662723541, 0.1017109751701355, 0.018268848656493447, -0.4251763046116117, 0.8603410823369889,0.28054308402894074,-0.682861328125,0.11602783203125,-0.53607177734375
20230215-1536,2023-02-15 15:36:48Z,u02, 668,100,movements,misc1, lt, nd,281463.8202394167, -0.8590472072969484, -0.20914077891856658, 0.5336275451384532, -0.14395979046821594, 0.15398433804512024, 0.014679890125989914, -0.7407204508781433, 0.20761947333812714, -0.63892662525177, 0.07156157493591309, -0.09629136323928833, 0.13103783130645752, 0.017657335478237182, -0.4245290239370582, 0.8607429187045381,0.2803298688099127,-0.669158935546875,0.111328125,-0.5078887939453125
20230215-1536,2023-02-15 15:36:48Z,u02, 669,100,movements,misc1, lt, nd,281463.8302624167, -0.8579227595971235, -0.21023087689909123, 0.5325071681598132, -0.1754647195339203, 0.10721497237682343, 0.026103785261511803, -0.7398298978805542, 0.20868569612503052, -0.639610767364502, 0.06864160299301147, -0.09563334286212921, 0.10102134943008423, 0.01678035933736203, -0.42416157821373435, 0.8610290038198529,0.28006125896824025,-0.6711883544921875,0.1130523681640625,-0.5385894775390625
20230215-1536,2023-02-15 15:36:48Z,u02, 670,100,movements,misc1, lt, nd,281463.8402854167, -0.8573937685094234, -0.21155080073043647, 0.531305720893273, -0.1935989111661911, 0.05915370211005211, 0.03891425579786301, -0.739282488822937, 0.20997637510299683, -0.6398212313652039, 0.05806922912597656, -0.06912252306938171, 0.10028570890426636, 0.015868068360786955, -0.4240726388957465, 0.8611766452848527,0.27979498983712947,-0.68121337890625,0.1408538818359375,-0.5395355224609375
20230215-1536,2023-02-15 15:36:48Z,u02, 671,100,movements,misc1, lt, nd,281463.8503084167, -0.8573021125334317, -0.21304997157899414, 0.5299133933804296, -0.2225986123085022, 0.011742508970201015, 0.03428967669606209, -0.7389850616455078, 0.21144188940525055, -0.6396822333335876, 0.012117385864257812, -0.10754479467868805, 0.09514182806015015, 0.014897113033897692, -0.424189760020353, 0.8612398985838132,0.2794761810845937,-0.72686767578125,0.1038970947265625,-0.5445404052734375
20230215-1536,2023-02-15 15:36:48Z,u02, 672,100,movements,misc1, lt, nd,281463.8603304167, -0.8575902171187556, -0.21476797455544933, 0.5284613094740334, -0.24051813781261444, -0.003986919764429331, 0.058168087154626846, -0.7388935089111328, 0.2131207436323166, -0.6392306685447693, -0.021055221557617188, -0.08749513328075409, 0.05397987365722656, 0.01386954158045758, -0.4244906296149808, 0.8612081531173945,0.2791697239240857,-0.75994873046875,0.1256256103515625,-0.5852508544921875
20230215-1536,2023-02-15 15:36:48Z,u02, 673,100,movements,misc1, lt, nd,281463.87035341666, -0.8580150150353915, -0.21654325221377374, 0.5270595119065815, -0.2257881909608841, -0.024887140840291977, 0.07388685643672943, -0.738877534866333, 0.214854896068573, -0.6386682987213135, -0.002455413341522217, -0.06618854403495789, 0.023296654224395752, 0.012846031217962793, -0.42485389088570447, 0.8611338829237993,0.27889493917569863,-0.7413330078125,0.1486663818359375,-0.6153717041015625
20230215-1536,2023-02-15 15:36:48Z,u02, 674,100,movements,misc1, lt, nd,281463.88037641667, -0.8587402525318999, -0.21821472418788504, 0.5258743822711045, -0.20846495032310486, -0.04489120841026306, 0.06964953243732452, -0.7390676736831665, 0.21648703515529633, -0.637896716594696, -0.01421278715133667, -0.07696068286895752, -0.044644296169281006, 0.011955978560326687, -0.425333613122583, 0.8609754193736173,0.27869257227612404,-0.7532806396484375,0.1395263671875,-0.6825408935546875
20230215-1536,2023-02-15 15:36:49Z,u02, 675,100,movements,misc1, lt, nd,281463.8903994167, -0.8600516251727734, -0.21974662691536317, 0.5243380145624383, -0.26319238543510437, -0.08909408748149872, 0.04103972390294075, -0.7396513819694519, 0.21798235177993774, -0.6367099285125732, -0.028277695178985596, -0.11829666793346405, -0.04885220527648926, 0.011134086482590802, -0.42605289932968554, 0.8607544969656552,0.2783102524635378,-0.7679290771484375,0.0996856689453125,-0.6855621337890625
20230215-1536,2023-02-15 15:36:49Z,u02, 676,100,movements,misc1, lt, nd,281463.9004224167, -0.8620463447596524, -0.22102664447781392, 0.5222546886811483, -0.2531448006629944, -0.14442658424377441, -0.017867080867290497, -0.740707516670227, 0.21923141181468964, -0.6350511312484741, -0.05537402629852295, -0.13860397040843964, -0.03581678867340088, 0.010401008043134976, -0.4270436247230277, 0.8604881732174688,0.2776429417490675,-0.79608154296875,0.08062744140625,-0.670867919921875
20230215-1536,2023-02-15 15:36:49Z,u02, 677,100,movements,misc1, lt, nd,281463.9104444167, -0.8641553318695825, -0.22145747857893763, 0.5202188143930218, -0.18080401420593262, -0.13420909643173218, -0.07185494899749756, -0.7419732809066772, 0.2196517437696457, -0.6334261894226074, -0.08949339389801025, -0.10157924890518188, -0.06335115432739258, 0.0100676885557895, -0.4280017990853402, 0.8602756722564711,0.2768372890087639,-0.8314666748046875,0.118072509765625,-0.69677734375
20230215-1536,2023-02-15 15:36:49Z,u02, 678,100,movements,misc1, lt, nd,281463.9204674167, -0.8662010405263073, -0.22107068939843844, 0.5183842078872843, -0.09237739443778992, -0.11355442553758621, -0.11700767278671265, -0.7433322072029114, 0.2192743867635727, -0.6319620013237, -0.07984888553619385, -0.10419259965419769, -0.04851895570755005, 0.010128359574517042, -0.42885476836370207, 0.860130440924647,0.27596498754589327,-0.82318115234375,0.115081787109375,-0.68048095703125
20230215-1536,2023-02-15 15:36:49Z,u02, 679,100,movements,misc1, lt, nd,281463.9304904167, -0.8678915328684422, -0.21948939805576295, 0.5171647582660669, 0.021418677642941475, -0.06137298047542572, -0.12691542506217957, -0.7446630597114563, 0.2177312970161438, -0.6309278607368469, -0.10888302326202393, -0.1189306229352951, -0.09004998207092285, 0.010798352927611995, -0.42944088891281945, 0.8600963905601425,0.2751327998505528,-0.853546142578125,0.0988006591796875,-0.720977783203125
20230215-1536,2023-02-15 15:36:49Z,u02, 680,100,movements,misc1, lt, nd,281463.94051341666, -0.8685803483855954, -0.21759288113893507, 0.5168160353117737, 0.08771704882383347, -0.006845290306955576, -0.11112256348133087, -0.7454113960266113, 0.215879887342453, -0.6306803226470947, -0.09397459030151367, -0.1442704051733017, -0.11835837364196777, 0.011656018490480128, -0.4295625456823479, 0.8601883828921426,0.2746196540196569,-0.839385986328125,0.0716094970703125,-0.7490386962890625
20230215-1536,2023-02-15 15:36:49Z,u02, 681,100,movements,misc1, lt, nd,281463.95053641667, -0.8686945307214843, -0.21613649638882967, 0.516668444003169, 0.024327687919139862, 0.0011780151398852468, -0.0682416781783104, -0.7457226514816284, 0.21445761620998383, -0.6307975649833679, -0.07123291492462158, -0.07186424732208252, -0.0637061595916748, 0.012283362935424135, -0.429476800481172, 0.8603311085080524,0.274279237738056,-0.81695556640625,0.1425933837890625,-0.6945037841796875
20230215-1536,2023-02-15 15:36:49Z,u02, 682,100,movements,misc1, lt, nd,281463.9605584167, -0.8683595041256946, -0.2154384180718558, 0.5163447604274718, -0.051760781556367874, 0.03967107832431793, -0.007166951894760132, -0.745625376701355, 0.21377573907375336, -0.6311439871788025, -0.03213036060333252, 0.04693593084812164, 0.01767963171005249, 0.012476347332646548, -0.42926956161896607, 0.8605176666683988,0.2740096055186194,-0.7777557373046875,0.260711669921875,-0.61346435546875
20230215-1536,2023-02-15 15:36:49Z,u02, 683,100,movements,misc1, lt, nd,281463.9705814167, -0.8675421864918612, -0.21516231185074386, 0.5159891488285118, -0.06664413213729858, 0.09830988943576813, 0.034691549837589264, -0.7451542615890503, 0.21350599825382233, -0.6317912936210632, -0.004799902439117432, 0.024866774678230286, 0.019776582717895508, 0.012410121789621954, -0.42889431733559985, 0.8607694285240104,0.27380930187771757,-0.7499542236328125,0.238372802734375,-0.6120147705078125
20230215-1536,2023-02-15 15:36:49Z,u02, 684,100,movements,misc1, lt, nd,281463.9806044167, -0.8662030967336138, -0.2145537858749168, 0.5161087126277906, 0.01499631255865097, 0.17510293424129486, 0.06748446822166443, -0.7444064617156982, 0.2129114717245102, -0.6328726410865784, -0.0008480548858642578, -0.007024616003036499, -0.05120939016342163, 0.012521358241579756, -0.4282603084793626, 0.8611011764988825,0.27375380626298323,-0.7452545166015625,0.2058868408203125,-0.68408203125
20230215-1536,2023-02-15 15:36:49Z,u02, 685,100,movements,misc1, lt, nd,281463.9906274167, -0.863787654086572, -0.21361189142579565, 0.5172197921868208, 0.13282227516174316, 0.26244744658470154, 0.08739958703517914, -0.7430277466773987, 0.2119910717010498, -0.6347988247871399, 0.020157933235168457, -0.0676582008600235, -0.08656042814254761, 0.012844579733634964, -0.4271248124745151, 0.8615597619643489,0.27406956135641747,-0.722869873046875,0.1443328857421875,-0.7213592529296875
20230215-1536,2023-02-15 15:36:49Z,u02, 686,100,movements,misc1, lt, nd,281464.0006504167, -0.8606291935982056, -0.21178513231205268, 0.5191801849004092, 0.22129382193088531, 0.3255009651184082, 0.08726850152015686, -0.7413114309310913, 0.21020548045635223, -0.6373938918113708, 0.021783292293548584, -0.08377118408679962, -0.07400137186050415, 0.01363722059431572, -0.42557852910764554, 0.8621465374847492,0.27459097487875195,-0.7195281982421875,0.126434326171875,-0.711395263671875
20230215-1536,2023-02-15 15:36:49Z,u02, 687,100,movements,misc1, lt, nd,281464.01067341666, -0.8567697356238101, -0.20908497533595932, 0.5215985366822232, 0.255262166261673, 0.36265525221824646, 0.07193135470151901, -0.7392721772193909, 0.20756489038467407, -0.6406195759773254, 0.017653584480285645, -0.059112146496772766, -0.03061455488204956, 0.01481507033655043, -0.42363986995067104, 0.8629018907086902,0.2751544545714333,-0.72161865234375,0.1484527587890625,-0.671234130859375
20230215-1536,2023-02-15 15:36:49Z,u02, 688,100,movements,misc1, lt, nd,281464.02069541666, -0.8525251111621386, -0.20596828080059534, 0.5238378717316086, 0.20744840800762177, 0.3501807451248169, 0.040607865899801254, -0.7370298504829407, 0.20451506972312927, -0.6441742777824402, 0.01342761516571045, -0.044755563139915466, 0.02640700340270996, 0.01608376800567044, -0.42149040564947626, 0.8637982857500837,0.27557131743843544,-0.723602294921875,0.159759521484375,-0.617767333984375
20230215-1536,2023-02-15 15:36:49Z,u02, 689,100,movements,misc1, lt, nd,281464.0307184167, -0.8490917154572546, -0.20401076075994193, 0.5252381409755497, 0.13186390697956085, 0.31051936745643616, 0.004175823647528887, -0.7351129055023193, 0.20259854197502136, -0.6469642519950867, 0.0031793713569641113, -0.038261398673057556, 0.07327961921691895, 0.016772211050851554, -0.41980538365904324, 0.8645196498667186,0.2758401344753495,-0.73193359375,0.164337158203125,-0.5736846923828125
20230215-1536,2023-02-15 15:36:49Z,u02, 690,100,movements,misc1, lt, nd,281464.0407414167, -0.8467610904104187, -0.20394028286567822, 0.5257906708149999, 0.06051270291209221, 0.2501252591609955, -0.023769497871398926, -0.7336137890815735, 0.20252951979637146, -0.6486852169036865, 0.009553790092468262, -0.038161858916282654, 0.1003149151802063, 0.016597701325009637, -0.41878621697675755, 0.8649389401868129,0.27608539286663364,-0.72406005859375,0.16436767578125,-0.548370361328125
20230215-1536,2023-02-15 15:36:49Z,u02, 691,100,movements,misc1, lt, nd,281464.0507644167, -0.8449604697467937, -0.20399959116992833, 0.5256033753238251, -0.03702583536505699, 0.17992912232875824, -0.026003889739513397, -0.7324355244636536, 0.20258758962154388, -0.6499971747398376, 0.021818578243255615, -0.04668857157230377, 0.11458152532577515, 0.016283692213887743, -0.41801466943909515, 0.8653356192998134,0.2760301630439043,-0.7106170654296875,0.1558990478515625,-0.5354156494140625
20230215-1536,2023-02-15 15:36:49Z,u02, 692,100,movements,misc1, lt, nd,281464.0607864167, -0.8436534052789122, -0.2043920098451965, 0.524611960817035, -0.1713215857744217, 0.09574739634990692, -0.047103315591812134, -0.7315259575843811, 0.20297186076641083, -0.6509011387825012, 0.037174761295318604, -0.04507391154766083, 0.12535786628723145, 0.015722215279471194, -0.41749521384932653, 0.8657072161219955,0.2756840386225426,-0.6943511962890625,0.15789794921875,-0.525543212890625
20230215-1536,2023-02-15 15:36:49Z,u02, 693,100,movements,misc1, lt, nd,281464.0708094167, -0.8430645821303093, -0.20505172085598114, 0.5226489412706528, -0.2569344937801361, 0.03483877331018448, -0.05954374000430107, -0.7310424447059631, 0.20361779630184174, -0.6512424945831299, 0.01270437240600586, -0.043400511145591736, 0.10033917427062988, 0.014938718526427367, -0.41731951005615664, 0.866035841914508,0.27496045994361934,-0.7183380126953125,0.16021728515625,-0.5509033203125
20230215-1536,2023-02-15 15:36:49Z,u02, 694,100,movements,misc1, lt, nd,281464.08083241666, -0.8431059191504686, -0.20580367959864995, 0.5201579005761193, -0.28211015462875366, -0.007602959871292114, -0.08156994730234146, -0.7309547662734985, 0.2043539434671402, -0.6511102318763733, -0.0009330511093139648, -0.05495515465736389, 0.06456243991851807, 0.01409076419298136, -0.41742822745144736, 0.8662955924554366,0.27402013592035984,-0.7318878173828125,0.1493988037109375,-0.5865478515625
20230215-1536,2023-02-15 15:36:49Z,u02, 695,100,movements,misc1, lt, nd,281464.09085541667, -0.8437309785919672, -0.20650828168936858, 0.5174176054393327, -0.2678092420101166, -0.03098657727241516, -0.11230016499757767, -0.7312538623809814, 0.20504362881183624, -0.6505573391914368, -0.025032758712768555, -0.04551298916339874, 0.04028207063674927, 0.013291222076423772, -0.4177854330811644, 0.8664709966672303,0.27295894778894514,-0.75628662109375,0.1595306396484375,-0.6102752685546875
20230215-1536,2023-02-15 15:36:49Z,u02, 696,100,movements,misc1, lt, nd,281464.1008784167, -0.8447548733881771, -0.20696097199246571, 0.5146299459413365, -0.23764096200466156, -0.015897640958428383, -0.1188368946313858, -0.7318500876426697, 0.20548668503761292, -0.6497466564178467, -0.04714155197143555, -0.03983725607395172, 0.00692439079284668, 0.012646961724990358, -0.41829025550338594, 0.8665926398034641,0.2718282381024038,-0.77899169921875,0.1656494140625,-0.642822265625
20230215-1536,2023-02-15 15:36:49Z,u02, 697,100,movements,misc1, lt, nd,281464.1109014167, -0.8458031163028309, -0.20719290514071012, 0.51215864247559, -0.17112115025520325, 0.016085326671600342, -0.10426197201013565, -0.7324950695037842, 0.2057136595249176, -0.6489474773406982, -0.034213244915008545, -0.0353035032749176, -0.03923916816711426, 0.012169017362367227, -0.41878178769446717, 0.8666858251608902,0.2707938751907773,-0.7667083740234375,0.17041015625,-0.6881866455078125
20230215-1536,2023-02-15 15:36:49Z,u02, 698,100,movements,misc1, lt, nd,281464.1209234167, -0.8457874156169977, -0.20732636941398783, 0.5104632131009261, -0.11269457638263702, 0.05141082778573036, -0.0811271220445633, -0.7324643135070801, 0.20584426820278168, -0.6489407420158386, -0.02312028408050537, -0.03601396083831787, -0.07989531755447388, 0.011752610134794528, -0.41879769518443427, 0.8669053510333666,0.2700839431034905,-0.755584716796875,0.169830322265625,-0.7288360595703125
20230215-1536,2023-02-15 15:36:49Z,u02, 699,100,movements,misc1, lt, nd,281464.1309464167, -0.84543314651203, -0.20734940401234578, 0.5091940831922956, -0.08856873214244843, 0.07296644896268845, -0.06591327488422394, -0.7322308421134949, 0.20586679875850677, -0.6491971015930176, -0.02869439125061035, -0.021784767508506775, -0.07175016403198242, 0.011428854368083208, -0.41865360306185984, 0.867148634148013,0.26954006252341606,-0.76092529296875,0.18408203125,-0.720947265625
20230215-1536,2023-02-15 15:36:49Z,u02, 700,100,movements,misc1, lt, nd,281464.1409694167, -0.8448121988589069, -0.2072989477744603, 0.5081975421932858, -0.06996341794729233, 0.09223628789186478, -0.054465703666210175, -0.7318353652954102, 0.20581743121147156, -0.6496585607528687, -0.049368858337402344, -0.02374953031539917, -0.04791229963302612, 0.011159116338226475, -0.4183852348461612, 0.8674176849198527,0.2691020631424801,-0.7812042236328125,0.18206787109375,-0.69757080078125
20230215-1536,2023-02-15 15:36:49Z,u02, 701,100,movements,misc1, lt, nd,281464.15099241666, -0.8440190511647769, -0.20736716552039172, 0.5072645024330255, -0.0947989895939827, 0.10647514462471008, -0.03674529492855072, -0.7313094139099121, 0.20588418841362, -0.6502294540405273, -0.05731058120727539, -0.028104037046432495, -0.023568153381347656, 0.010827047392509195, -0.4180526818863206, 0.8677023925002504,0.268714334809012,-0.7886199951171875,0.1777801513671875,-0.673797607421875
20230215-1536,2023-02-15 15:36:49Z,u02, 702,100,movements,misc1, lt, nd,281464.16101541667, -0.8436794821138476, -0.20765480466821734, 0.5060536598365133, -0.16873569786548615, 0.09558680653572083, -0.004206769168376923, -0.7310442328453064, 0.20616565644741058, -0.6504383087158203, -0.056721270084381104, 0.01597176492214203, 0.003847181797027588, 0.010400562874414983, -0.41793860580683956, 0.8679078927061981,0.26824408328641575,-0.7877655029296875,0.222137451171875,-0.6465911865234375
20230215-1536,2023-02-15 15:36:49Z,u02, 703,100,movements,misc1, lt, nd,281464.1710374167, -0.8433951415668866, -0.20881058419472964, 0.504454240106055, -0.2557035982608795, 0.10320451855659485, 0.033250592648983, -0.7306808233261108, 0.2072964608669281, -0.6504873037338257, -0.043122828006744385, 0.0540103018283844, 0.053120970726013184, 0.009514316966444128, -0.4179303994010865, 0.8680699246114385,0.2677654609254984,-0.7738037109375,0.2613067626953125,-0.5973663330078125
20230215-1536,2023-02-15 15:36:49Z,u02, 704,100,movements,misc1, lt, nd,281464.1810604167, -0.8430651858894251, -0.21072932935156136, 0.5024983778704126, -0.3233601152896881, 0.10413768887519836, 0.063394695520401, -0.730167806148529, 0.20917315781116486, -0.6504625678062439, -0.03785276412963867, 0.005212828516960144, 0.05240964889526367, 0.008208123350475565, -0.4179728995398389, 0.8682143675639382,0.26727327595496525,-0.7680206298828125,0.214385986328125,-0.598052978515625
20230215-1536,2023-02-15 15:36:49Z,u02, 705,100,movements,misc1, lt, nd,281464.1910834167, -0.8424476504780956, -0.21320785103125822, 0.5003167104572812, -0.3694874048233032, 0.10407909750938416, 0.08298411220312119, -0.7293768525123596, 0.21159620583057404, -0.6505662798881531, -0.015328288078308105, 0.0008213967084884644, 0.056648433208465576, 0.00656707496199806, -0.41793986306152997, 0.8683938770032161,0.26678696442884664,-0.7447052001953125,0.2124176025390625,-0.5939178466796875
20230215-1536,2023-02-15 15:36:49Z,u02, 706,100,movements,misc1, lt, nd,281464.2011064167, -0.8415833341661734, -0.2157948818010881, 0.4981311220868758, -0.36065447330474854, 0.08772408962249756, 0.07972334325313568, -0.728403627872467, 0.21412393450737, -0.650829553604126, 0.002787172794342041, -0.032895296812057495, 0.06797432899475098, 0.004843857168076872, -0.41780589583331135, 0.8686134256129032,0.26631842983747317,-0.725616455078125,0.1812286376953125,-0.582855224609375
20230215-1536,2023-02-15 15:36:49Z,u02, 707,100,movements,misc1, lt, nd,281464.2111294167, -0.84094721056735, -0.218190982005143, 0.49617400519621213, -0.29991841316223145, 0.06623104959726334, 0.07072877883911133, -0.7276050448417664, 0.2164638489484787, -0.6509488224983215, 0.006871402263641357, -0.0437496155500412, 0.09220248460769653, 0.0032835843658900084, -0.41774969185337807, 0.8687723389618603,0.2659118962690755,-0.720733642578125,0.1727142333984375,-0.558746337890625
20230215-1536,2023-02-15 15:36:49Z,u02, 708,100,movements,misc1, lt, nd,281464.22115141666, -0.840819961227704, -0.2199339938062724, 0.4946195403013953, -0.21968993544578552, 0.023881996050477028, 0.05617880821228027, -0.7272399067878723, 0.21816520392894745, -0.6507887840270996, 0.02660214900970459, -0.05425530672073364, 0.11918789148330688, 0.0021657304594865767, -0.4178527493168437, 0.8688343473164972,0.26555829740587156,-0.7006378173828125,0.163909912109375,-0.5316009521484375
20230215-1536,2023-02-15 15:36:49Z,u02, 709,100,movements,misc1, lt, nd,281464.23117441667, -0.8413165578554374, -0.22107252866876587, 0.4933458203793509, -0.19062872231006622, -0.0316917821764946, 0.015065995045006275, -0.7273773550987244, 0.21927617490291595, -0.650261640548706, 0.04866647720336914, -0.06281255185604095, 0.12751078605651855, 0.0014583036721318929, -0.41817108964177735, 0.8687877674635316,0.26521451821178454,-0.6787109375,0.156463623046875,-0.5227508544921875
20230215-1536,2023-02-15 15:36:49Z,u02, 710,100,movements,misc1, lt, nd,281464.2411974167, -0.8426659926212124, -0.22250830911916156, 0.49147672842428225, -0.2695804536342621, -0.10668107122182846, -0.02156914211809635, -0.7280184030532837, 0.22067677974700928, -0.6490692496299744, 0.08144247531890869, -0.06988944113254547, 0.17996835708618164, 0.0006064868496312697, -0.4188854226811928, 0.8686114922803087,0.264667111060286,-0.646575927734375,0.150787353515625,-0.4691009521484375
20230215-1536,2023-02-15 15:36:49Z,u02, 711,100,movements,misc1, lt, nd,281464.2512204167, -0.8451750274565839, -0.22460434110217156, 0.4886183764280789, -0.4013419449329376, -0.2101113200187683, -0.05808640643954277, -0.7292970418930054, 0.2227206528186798, -0.6469322443008423, 0.09793412685394287, -0.08363679051399231, 0.23991930484771729, -0.0005949541790633284, -0.4201589266075511, 0.8682559281874705,0.26381388052445154,-0.6313629150390625,0.1390838623046875,-0.407012939453125
20230215-1536,2023-02-15 15:36:49Z,u02, 712,100,movements,misc1, lt, nd,281464.2612434167, -0.8486304540962966, -0.2271522185797581, 0.4844857017574257, -0.5391767621040344, -0.2887595295906067, -0.07861090451478958, -0.7310999631881714, 0.22520381212234497, -0.6440311670303345, 0.1258295178413391, -0.04524165391921997, 0.286868691444397, -0.0021445181080683943, -0.42187653976391104, 0.8678199920454782,0.26249587442170813,-0.6052703857421875,0.179962158203125,-0.3571624755859375
20230215-1536,2023-02-15 15:36:49Z,u02, 713,100,movements,misc1, lt, nd,281464.2712654167, -0.8529819970673104, -0.2301867860124915, 0.4793878627132678, -0.6085044741630554, -0.34939146041870117, -0.11286075413227081, -0.7333773970603943, 0.22815938293933868, -0.6403912305831909, 0.164148211479187, -0.09777303040027618, 0.3442333936691284, -0.004003626972421198, -0.4240145804712118, 0.8672651436326467,0.26085774495322783,-0.5692291259765625,0.1303863525390625,-0.2961578369140625
20230215-1536,2023-02-15 15:36:49Z,u02, 714,100,movements,misc1, lt, nd,281464.2812884167, -0.8579564975921902, -0.2332056820914429, 0.4737618184821663, -0.6079567074775696, -0.37438416481018066, -0.13573823869228363, -0.7360295057296753, 0.23109760880470276, -0.6362817883491516, 0.19621938467025757, -0.09065572917461395, 0.36836791038513184, -0.005896046645566949, -0.4264086655881479, 0.8666376797345302,0.25899818317278295,-0.5398101806640625,0.14044189453125,-0.267913818359375
20230215-1536,2023-02-15 15:36:49Z,u02, 715,100,movements,misc1, lt, nd,281464.29131141666, -0.862967553799425, -0.23595540287498146, 0.4681429373564179, -0.5821099281311035, -0.363903284072876, -0.14583268761634827, -0.7387230396270752, 0.23377202451229095, -0.6321699023246765, 0.2555229663848877, -0.10034917294979095, 0.3570082187652588, -0.007673182132594651, -0.42878451832172315, 0.8660161214447104,0.2571009607618088,-0.4832000732421875,0.1334228515625,-0.2751617431640625
20230215-1536,2023-02-15 15:36:49Z,u02, 716,100,movements,misc1, lt, nd,281464.30133441667, -0.8678084314228791, -0.23851669688127866, 0.46258860582198874, -0.5841119885444641, -0.34275299310684204, -0.1570420116186142, -0.7413154244422913, 0.23626157641410828, -0.6281973123550415, 0.30643999576568604, -0.13630126416683197, 0.3306052088737488, -0.009385143228559158, -0.43106063605502876, 0.8654300528245258,0.25520447520593575,-0.43487548828125,0.0999603271484375,-0.2975921630859375
20230215-1536,2023-02-15 15:36:49Z,u02, 717,100,movements,misc1, lt, nd,281464.3113574167, -0.8724753199976402, -0.2410132400023098, 0.45691045173836886, -0.5839511156082153, -0.316637247800827, -0.16132065653800964, -0.7437849640846252, 0.2386866956949234, -0.6243496537208557, 0.348857045173645, -0.1207210123538971, 0.330663800239563, -0.011127472268612873, -0.43324513438019846, 0.8648926029119992,0.25324989066150433,-0.394927978515625,0.1179656982421875,-0.2936859130859375
20230215-1536,2023-02-15 15:36:49Z,u02, 718,100,movements,misc1, lt, nd,281464.3213794167, -0.8767095081703219, -0.24326287270214705, 0.45149887936083394, -0.4963779151439667, -0.2724570035934448, -0.15650252997875214, -0.7460072636604309, 0.24087071418762207, -0.6208497285842896, 0.3859914541244507, -0.10927894711494446, 0.34088146686553955, -0.012766740558880912, -0.43521507286492744, 0.8644296256562684,0.25136860342563455,-0.360015869140625,0.131591796875,-0.27996826171875
20230215-1536,2023-02-15 15:36:49Z,u02, 719,100,movements,misc1, lt, nd,281464.3314024167, -0.8803513616881427, -0.2446991868411468, 0.44719438131030864, -0.34596896171569824, -0.2510467767715454, -0.1454504132270813, -0.747995913028717, 0.24226447939872742, -0.6179078221321106, 0.3999124765396118, -0.11503669619560242, 0.3297150135040283, -0.013886134659323562, -0.43686756862507314, 0.8640304255971224,0.24981071352263046,-0.34808349609375,0.127227783203125,-0.2881927490234375
20230215-1536,2023-02-15 15:36:49Z,u02, 720,100,movements,misc1, lt, nd,281464.3414254167, -0.8836930396606402, -0.24580673961019472, 0.44344583757747547, -0.39146435260772705, -0.23750033974647522, -0.14034870266914368, -0.7498487234115601, 0.24333889782428741, -0.6152342557907104, 0.39195382595062256, -0.12354214489459991, 0.37751758098602295, -0.014781258922262031, -0.43836559348849585, 0.8636546512845907,0.24843086589704427,-0.3578948974609375,0.1197967529296875,-0.2377166748046875
20230215-1536,2023-02-15 15:36:49Z,u02, 721,100,movements,misc1, lt, nd,281464.3514484167, -0.8871047853327759, -0.24768138033097942, 0.43877174058997537, -0.5436280369758606, -0.2113257199525833, -0.13508497178554535, -0.7515884041786194, 0.24515675008296967, -0.6123831272125244, 0.3663650155067444, -0.11799000203609467, 0.4882071018218994, -0.016216140061382726, -0.4399380317832142, 0.8632952745360718,0.24680535323925318,-0.385223388671875,0.127166748046875,-0.124176025390625
20230215-1536,2023-02-15 15:36:49Z,u02, 722,100,movements,misc1, lt, nd,281464.36147141666, -0.8903322584865955, -0.25026457017341003, 0.4333521945188352, -0.5896124243736267, -0.16751432418823242, -0.11555979400873184, -0.7530661225318909, 0.247660294175148, -0.6095536947250366, 0.34042274951934814, -0.1291453093290329, 0.4634050726890564, -0.018158172234896155, -0.44146734866808485, 0.8629898344954221,0.24500074633981997,-0.4126434326171875,0.1185150146484375,-0.146148681640625
20230215-1536,2023-02-15 15:36:49Z,u02, 723,100,movements,misc1, lt, nd,281464.37149341666, -0.8930817209221266, -0.2532623817415787, 0.42785087497213453, -0.6170251369476318, -0.09959892928600311, -0.07706273347139359, -0.7541574239730835, 0.2505635917186737, -0.6070126295089722, 0.34487098455429077, -0.1607656478881836, 0.35179418325424194, -0.020366768413573565, -0.44280795898857184, 0.8627505540931495,0.2432439542073837,-0.4092864990234375,0.0897979736328125,-0.255218505859375
20230215-1536,2023-02-15 15:36:49Z,u02, 724,100,movements,misc1, lt, nd,281464.3815164167, -0.8949207334417599, -0.2566723321843535, 0.4225517660896629, -0.6013168096542358, -0.0032444302923977375, -0.028815682977437973, -0.7546015977859497, 0.25386330485343933, -0.6050867438316345, 0.3761836290359497, -0.17808815836906433, 0.28474366664886475, -0.02282879928076102, -0.4437741407783529, 0.8626401577824709,0.24165134005236927,-0.37841796875,0.075775146484375,-0.320343017578125
20230215-1536,2023-02-15 15:36:49Z,u02, 725,100,movements,misc1, lt, nd,281464.3915394167, -0.8956191219306111, -0.2600784035871038, 0.41795491581902694, -0.5169766545295715, 0.09546616673469543, 0.008342072367668152, -0.754344642162323, 0.2571563124656677, -0.604015588760376, 0.3968464732170105, -0.17222589254379272, 0.22311043739318848, -0.025273934804073542, -0.444244783315654, 0.8626931227173096,0.24035062209391947,-0.3574981689453125,0.084930419921875,-0.3809051513671875
20230215-1536,2023-02-15 15:36:49Z,u02, 726,100,movements,misc1, lt, nd,281464.4015624167, -0.8950596573648748, -0.26323644623826176, 0.41427512744107886, -0.4253975749015808, 0.20753544569015503, 0.03963823616504669, -0.753369152545929, 0.2602068781852722, -0.6039265394210815, 0.40934455394744873, -0.1607653796672821, 0.19494527578353882, -0.027557547946417217, -0.44415910787457163, 0.8629369519088206,0.23938045242422795,-0.344024658203125,0.0994415283203125,-0.4089813232421875
20230215-1536,2023-02-15 15:36:49Z,u02, 727,100,movements,misc1, lt, nd,281464.4115854167, -0.8932612559247827, -0.2656520087620282, 0.41189000690418204, -0.2424842268228531, 0.2665252685546875, 0.05405312776565552, -0.751789927482605, 0.26253846287727356, -0.6048846244812012, 0.4113205671310425, -0.13756898045539856, 0.20014524459838867, -0.029372574062783825, -0.44350302619199417, 0.8633745005482932,0.23880265270907639,-0.3404693603515625,0.124969482421875,-0.4047393798828125
20230215-1536,2023-02-15 15:36:49Z,u02, 728,100,movements,misc1, lt, nd,281464.4216074167, -0.8908825857742984, -0.2672628148614891, 0.41073561859515345, -0.15791231393814087, 0.2638469338417053, 0.06390975415706635, -0.7500191926956177, 0.26409241557121277, -0.6064045429229736, 0.3798409700393677, -0.09668824076652527, 0.22896313667297363, -0.0306266084239517, -0.4425604277037943, 0.8638745105314108,0.2385858692580216,-0.37017822265625,0.1674041748046875,-0.37744140625
20230215-1536,2023-02-15 15:36:49Z,u02, 729,100,movements,misc1, lt, nd,281464.43163041666, -0.888611664496596, -0.2689000688752448, 0.40973953269027535, -0.21057897806167603, 0.23646137118339539, 0.07002543658018112, -0.7483034729957581, 0.2656711935997009, -0.6078327894210815, 0.31670868396759033, -0.08351176977157593, 0.28639113903045654, -0.0318441676138488, -0.4416668066895277, 0.8643274158948903,0.2384417580675266,-0.4315948486328125,0.182159423828125,-0.321441650390625
20230215-1536,2023-02-15 15:36:49Z,u02, 730,100,movements,misc1, lt, nd,281464.44165341667, -0.8867418129434199, -0.27097820285207785, 0.4083156703252133, -0.26536232233047485, 0.21631695330142975, 0.08207748830318451, -0.7467361092567444, 0.267674058675766, -0.6088806986808777, 0.26628267765045166, -0.10472545027732849, 0.2978608012199402, -0.033303841501638454, -0.4409654189126994, 0.8646962577498397,0.2382030983865375,-0.4804534912109375,0.1629486083984375,-0.3110198974609375
20230215-1536,2023-02-15 15:36:49Z,u02, 731,100,movements,misc1, lt, nd,281464.4516764167, -0.8850872695762193, -0.2735530301047876, 0.40651526483942346, -0.33888259530067444, 0.21967066824436188, 0.10773331671953201, -0.7451918125152588, 0.27015405893325806, -0.6096768975257874, 0.2508223056793213, -0.11521634459495544, 0.2614714503288269, -0.03504118991782013, -0.44037898800185804, 0.8650098950792987,0.23789974835658292,-0.4943695068359375,0.154937744140625,-0.34820556640625
20230215-1536,2023-02-15 15:36:49Z,u02, 732,100,movements,misc1, lt, nd,281464.4616994167, -0.8833905494514334, -0.27679672985646253, 0.40416681440877805, -0.41691213846206665, 0.2410193681716919, 0.11253806203603745, -0.743475079536438, 0.2732757031917572, -0.6103811860084534, 0.25598734617233276, -0.11734616756439209, 0.26589876413345337, -0.037201092439006544, -0.43980165154130857, 0.8653270578372729,0.23748602504640975,-0.48748779296875,0.1559295654296875,-0.344482421875
20230215-1536,2023-02-15 15:36:49Z,u02, 733,100,movements,misc1, lt, nd,281464.4717214167, -0.8816663268665332, -0.2803445310207879, 0.40151257611705665, -0.4309201240539551, 0.2541777789592743, 0.11706676334142685, -0.7416685223579407, 0.27668675780296326, -0.6110418438911438, 0.21942132711410522, -0.08151161670684814, 0.2120550274848938, -0.03956627614745119, -0.43921930655016556, 0.8656524679798925,0.23699488304644675,-0.522247314453125,0.1951751708984375,-0.39898681640625
20230215-1536,2023-02-15 15:36:49Z,u02, 734,100,movements,misc1, lt, nd,281464.4817444167, -0.8795209026931986, -0.2838428309884374, 0.3989776419387549, -0.37747853994369507, 0.3183210790157318, 0.10789641737937927, -0.7396056652069092, 0.2800467610359192, -0.6120107769966125, 0.20557856559753418, -0.06509619951248169, 0.13242709636688232, -0.04193264443847368, -0.43844755513099554, 0.866058589724189,0.2365328718767775,-0.534027099609375,0.2149505615234375,-0.479583740234375
20230215-1536,2023-02-15 15:36:49Z,u02, 735,100,movements,misc1, lt, nd,281464.4917674167, -0.8767014860105683, -0.28644375763612345, 0.39709485423192165, -0.22379523515701294, 0.34730294346809387, 0.06609224528074265, -0.7373149394989014, 0.2825426757335663, -0.6136256456375122, 0.15879321098327637, -0.050425976514816284, 0.04573929309844971, -0.04383577747482649, -0.43733922493491134, 0.8666264022334434,0.23616014823763787,-0.578521728515625,0.23211669921875,-0.5678863525390625
20230215-1536,2023-02-15 15:36:49Z,u02, 736,100,movements,misc1, lt, nd,281464.50179041666, -0.8733292507582436, -0.28773764184391665, 0.3962826475023675, -0.09987130016088486, 0.3648715317249298, 0.029738202691078186, -0.7349605560302734, 0.28378361463546753, -0.6158732175827026, 0.10577964782714844, 0.0030968785285949707, -0.009859204292297363, -0.04498746827603831, -0.4359352274303192, 0.8673227704951488,0.23598264160130808,-0.629180908203125,0.2868804931640625,-0.625732421875
20230215-1536,2023-02-15 15:36:49Z,u02, 737,100,movements,misc1, lt, nd,281464.51181341667, -0.8698261867386816, -0.28837567758720817, 0.39576640791286527, -0.06673438847064972, 0.3596496284008026, 0.008271259255707264, -0.7326601147651672, 0.28439533710479736, -0.6183271408081055, 0.09421712160110474, -0.04431354999542236, -0.009099006652832031, -0.04579738774829753, -0.4344410587079676, 0.8680789794785182,0.23580166769299385,-0.6384429931640625,0.240081787109375,-0.6274261474609375
20230215-1536,2023-02-15 15:36:49Z,u02, 738,100,movements,misc1, lt, nd,281464.5218354167, -0.8665916722763136, -0.2887592358749782, 0.3951231988794499, -0.08365653455257416, 0.3163335621356964, -0.027190648019313812, -0.7305730581283569, 0.28476303815841675, -0.620622992515564, 0.058377742767333984, -0.07123157382011414, -0.0025764107704162598, -0.046489109760792416, -0.43304417442628224, 0.8688159986072816,0.2355211062508174,-0.6721954345703125,0.213531494140625,-0.623199462890625
20230215-1536,2023-02-15 15:36:49Z,u02, 739,100,movements,misc1, lt, nd,281464.5318584167, -0.864121989304764, -0.2891744676340553, 0.39387137634949704, -0.16270101070404053, 0.25429683923721313, -0.056863054633140564, -0.728948175907135, 0.2851610779762268, -0.6223486065864563, -0.03588336706161499, -0.024266332387924194, 0.008334934711456299, -0.047235693371466846, -0.4319658464691562, 0.8694538910916451,0.23499838387833072,-0.76483154296875,0.260894775390625,-0.614013671875
20230215-1536,2023-02-15 15:36:49Z,u02, 740,100,movements,misc1, lt, nd,281464.5418814167, -0.8622750150839156, -0.28998442468732555, 0.3919231597798752, -0.22613005340099335, 0.2281600385904312, -0.05521812662482262, -0.727621853351593, 0.2859373092651367, -0.623543381690979, -0.08854025602340698, -0.0029172897338867188, 0.022652268409729004, -0.04823452718671296, -0.4311632333165513, 0.8699962481223524,0.23426114421155772,-0.816162109375,0.28302001953125,-0.60089111328125
20230215-1536,2023-02-15 15:36:49Z,u02, 741,100,movements,misc1, lt, nd,281464.5519044167, -0.8606675906193996, -0.2911584253694533, 0.38968432549052406, -0.2535851299762726, 0.22374558448791504, -0.04036727547645569, -0.7263635396957397, 0.2870620787143707, -0.624492883682251, -0.08871519565582275, -0.009733587503433228, -0.022861242294311523, -0.049429364075854465, -0.4304768135432793, 0.8704814470440387,0.23347064458183686,-0.8150787353515625,0.2773284912109375,-0.6473541259765625
20230215-1536,2023-02-15 15:36:49Z,u02, 742,100,movements,misc1, lt, nd,281464.5619274167, -0.8589547308286022, -0.2926204363105473, 0.38739257831956253, -0.2697752118110657, 0.24954362213611603, -0.021885231137275696, -0.7249742150306702, 0.28846225142478943, -0.6254612803459167, -0.07470834255218506, 0.02798977494239807, -0.07961684465408325, -0.05077544767273632, -0.42975715599108294, 0.8709637836642317,0.23270712619018566,-0.7996826171875,0.3164520263671875,-0.705078125
20230215-1536,2023-02-15 15:36:49Z,u02, 743,100,movements,misc1, lt, nd,281464.57194941666, -0.8569911988355944, -0.2943066810939898, 0.38508216364693215, -0.2855757474899292, 0.27680400013923645, -0.013169770129024982, -0.7233760356903076, 0.2900764048099518, -0.6265642642974854, -0.05532568693161011, 0.04113084077835083, -0.08289313316345215, -0.05225376610956102, -0.4289375491664528, 0.8714771476643166,0.23196906587350122,-0.7787017822265625,0.331207275390625,-0.7094573974609375
20230215-1536,2023-02-15 15:36:49Z,u02, 744,100,movements,misc1, lt, nd,281464.58197241666, -0.8548433181891754, -0.29600673182514897, 0.3827553835830236, -0.2679692208766937, 0.28029248118400574, -0.019371312111616135, -0.7216554880142212, 0.2917029559612274, -0.6277919411659241, -0.04763156175613403, 0.03222590684890747, -0.07434117794036865, -0.053761788890967575, -0.4280346842657034, 0.8720285768649263,0.23121877800770832,-0.769287109375,0.3239288330078125,-0.7021331787109375
20230215-1536,2023-02-15 15:36:49Z,u02, 745,100,movements,misc1, lt, nd,281464.5919954167, -0.8527785954156784, -0.2972396740606634, 0.380676746611252, -0.1750382035970688, 0.2526099681854248, -0.059519801288843155, -0.7200863361358643, 0.2928820550441742, -0.6290435791015625, -0.06172823905944824, 0.046748071908950806, -0.09014892578125, -0.054996581650294765, -0.42714586968895596, 0.8725806788538885,0.23048816451993812,-0.7818145751953125,0.339630126953125,-0.7191925048828125
20230215-1536,2023-02-15 15:36:49Z,u02, 746,100,movements,misc1, lt, nd,281464.6020184167, -0.8508863613310821, -0.297362443096813, 0.3791839621829853, -0.08142878115177155, 0.2090076506137848, -0.09821915626525879, -0.7188677191734314, 0.29299941658973694, -0.6303812861442566, -0.1190534234046936, 0.04841598868370056, -0.11581927537918091, -0.05558782865620124, -0.4262855103500004, 0.8731433609810496,0.22980741248060915,-0.837921142578125,0.3414154052734375,-0.7462005615234375
20230215-1536,2023-02-15 15:36:49Z,u02, 747,100,movements,misc1, lt, nd,281464.6120414167, -0.8493316293182821, -0.29710518923600876, 0.3778513924868002, -0.07808571308851242, 0.18736493587493896, -0.103424571454525, -0.7179433703422546, 0.2927534580230713, -0.6315479278564453, -0.15000706911087036, 0.05932784080505371, -0.12440299987792969, -0.05593469374715719, -0.4255553286488805, 0.8736542146937101,0.22913388570771498,-0.867950439453125,0.352081298828125,-0.755950927734375
20230215-1536,2023-02-15 15:36:49Z,u02, 748,100,movements,misc1, lt, nd,281464.6220634167, -0.84765352403558, -0.29682342858893185, 0.37667547085100417, -0.06197910010814667, 0.21669912338256836, -0.07826056331396103, -0.7169442772865295, 0.29248401522636414, -0.6328063607215881, -0.15114343166351318, 0.02607366442680359, -0.1586059331893921, -0.056250327293510344, -0.4247737292328735, 0.8741747965886065,0.22852024030402546,-0.8680877685546875,0.3185577392578125,-0.791412353515625
20230215-1536,2023-02-15 15:36:49Z,u02, 749,100,movements,misc1, lt, nd,281464.6320864167, -0.8455361312222146, -0.29682658969541525, 0.37573777087658655, -0.0708458349108696, 0.2640109658241272, -0.03638715669512749, -0.7156020998954773, 0.2924870550632477, -0.6343224048614502, -0.12553858757019043, 0.03467664122581482, -0.1710364818572998, -0.056692368070446295, -0.4238216306682201, 0.8747307615898514,0.2280510461053201,-0.8411407470703125,0.3271636962890625,-0.80535888671875
20230215-1536,2023-02-15 15:36:49Z,u02, 750,100,movements,misc1, lt, nd,281464.64210941666, -0.8426916918086003, -0.29713112137968867, 0.3751756334494041, -0.0519624799489975, 0.34184664487838745, 0.019292963668704033, -0.7137284278869629, 0.29277825355529785, -0.6362960338592529, -0.10652303695678711, 0.04654669761657715, -0.17762303352355957, -0.05727215114428891, -0.42257766639935523, 0.8753650464843091,0.22778081601139466,-0.82025146484375,0.339324951171875,-0.8139190673828125
20230215-1536,2023-02-15 15:36:49Z,u02, 751,100,movements,misc1, lt, nd,281464.65213241667, -0.8387101825219393, -0.297738817084848, 0.375200914086994, -0.02508426085114479, 0.44913050532341003, 0.07831261307001114, -0.7110568881034851, 0.29335924983024597, -0.6390136480331421, -0.09367638826370239, 0.04068613052368164, -0.1904388666152954, -0.05799322699219268, -0.4208681172307309, 0.8761383900481612,0.22778997690018765,-0.8047332763671875,0.33404541015625,-0.8294525146484375
20230215-1536,2023-02-15 15:36:49Z,u02, 752,100,movements,misc1, lt, nd,281464.6621554167, -0.8336387510577102, -0.2985293646239683, 0.37582656766337424, 0.00438612699508667, 0.5183713436126709, 0.11869273334741592, -0.7076351642608643, 0.29411494731903076, -0.6424553990364075, -0.08020669221878052, 0.05058109760284424, -0.19899052381515503, -0.05879526125110829, -0.4187068350667107, 0.8770492950314887,0.228062017505208,-0.787841796875,0.344696044921875,-0.8414459228515625
20230215-1536,2023-02-15 15:36:49Z,u02, 753,100,movements,misc1, lt, nd,281464.6721774167, -0.8280380530453191, -0.2993901962231863, 0.3767812144754916, 0.0029022134840488434, 0.5338730216026306, 0.13138003647327423, -0.703839123249054, 0.2949375808238983, -0.6462370753288269, -0.11679381132125854, 0.06666520237922668, -0.2075989842414856, -0.05962258183494856, -0.4163251192260809, 0.8780197827643096,0.22847284786056637,-0.8206329345703125,0.361602783203125,-0.8538360595703125
20230215-1536,2023-02-15 15:36:49Z,u02, 754,100,movements,misc1, lt, nd,281464.6822004167, -0.8225721771784975, -0.3003229777597595, 0.3775499155955037, -0.02366477996110916, 0.5112037062644958, 0.1107301190495491, -0.7000944018363953, 0.2958287298679352, -0.6498870849609375, -0.12990736961364746, 0.07009229063987732, -0.163177490234375, -0.06050808280030475, -0.41399908516735806, 0.8789691627717835,0.22881604417688622,-0.8300018310546875,0.3659210205078125,-0.8130645751953125
20230215-1536,2023-02-15 15:36:49Z,u02, 755,100,movements,misc1, lt, nd,281464.6922234167, -0.8175201771952647, -0.3011528400231273, 0.37815453710044156, -0.003799193538725376, 0.45308956503868103, 0.09446512907743454, -0.696622908115387, 0.2966213524341583, -0.6532474160194397, -0.12686336040496826, 0.05556672811508179, -0.12505757808685303, -0.06133576653041465, -0.4118424534687981, 0.8798561753379597,0.22907795528061983,-0.823486328125,0.3521881103515625,-0.7783050537109375
20230215-1536,2023-02-15 15:36:49Z,u02, 756,100,movements,misc1, lt, nd,281464.7022464167, -0.8131229935897144, -0.30184261867598694, 0.3787678634960585, -0.014018808491528034, 0.3900895416736603, 0.09530908614397049, -0.6935949325561523, 0.2972800135612488, -0.6561635136604309, -0.13178342580795288, 0.02414637804031372, -0.09462994337081909, -0.06202500231355818, -0.4099647955020917, 0.8806171891854482,0.22933610460023174,-0.82537841796875,0.3214263916015625,-0.75079345703125
20230215-1536,2023-02-15 15:36:49Z,u02, 757,100,movements,misc1, lt, nd,281464.71226941666, -0.8092575106385089, -0.3026789493091439, 0.3793743457600558, -0.01660500466823578, 0.3420993983745575, 0.1059875637292862, -0.6908732056617737, 0.2980784475803375, -0.6586679220199585, -0.12679952383041382, 0.007463544607162476, -0.078224778175354, -0.06272219924620827, -0.4083282703643994, 0.8812507951951329,0.22963198837115578,-0.8176727294921875,0.3055419921875,-0.7368927001953125
20230215-1536,2023-02-15 15:36:49Z,u02, 758,100,movements,misc1, lt, nd,281464.72229141666, -0.8057877057826808, -0.30354279588634414, 0.38007518923519307, -0.016120554879307747, 0.31110551953315735, 0.11617019027471542, -0.6883975863456726, 0.2989028990268707, -0.6608825922012329, -0.1331203579902649, -0.010969579219818115, -0.09369504451751709, -0.06336848759942482, -0.4068699379530439, 0.8817869311558815,0.2299849181378108,-0.8215179443359375,0.287933349609375,-0.75457763671875
20230215-1536,2023-02-15 15:36:49Z,u02, 759,100,movements,misc1, lt, nd,281464.7323144167, -0.8025847447133643, -0.30470374414917284, 0.3804946610819096, -0.09751847386360168, 0.30282655358314514, 0.1074262335896492, -0.6860272288322449, 0.3000105917453766, -0.6628425121307373, -0.09989190101623535, -0.006400942802429199, -0.0816032886505127, -0.06417683776238606, -0.4055367756184492, 0.8822672627436278,0.23027299193983036,-0.785919189453125,0.293609619140625,-0.74444580078125
20230215-1536,2023-02-15 15:36:49Z,u02, 760,100,movements,misc1, lt, nd,281464.7423374167, -0.7995883590802881, -0.30625920136598067, 0.38026840574744636, -0.14015093445777893, 0.3084508776664734, 0.08676103502511978, -0.6837026476860046, 0.3014940321445465, -0.664569079875946, -0.06219279766082764, -0.002726912498474121, -0.05129694938659668, -0.06527149422247966, -0.40429578394033727, 0.8827363745001321,0.23034988895410957,-0.7458953857421875,0.29876708984375,-0.7158660888671875
20230215-1536,2023-02-15 15:36:49Z,u02, 761,100,movements,misc1, lt, nd,281464.7523604167, -0.7966122411501827, -0.3076582748138411, 0.3798041633119448, -0.11285647749900818, 0.3082287609577179, 0.05201130732893944, -0.6814194917678833, 0.3028276860713959, -0.6663053631782532, -0.049629032611846924, 0.017408519983291626, -0.07789623737335205, -0.06634130933679247, -0.40304606985435076, 0.8832430553427543,0.23029215632006017,-0.731048583984375,0.3202362060546875,-0.74420166015625
20230215-1536,2023-02-15 15:36:49Z,u02, 762,100,movements,misc1, lt, nd,281464.7623834167, -0.7936918175126277, -0.3082742413752298, 0.37953855722789975, -0.005805580411106348, 0.2840792238712311, 0.008424045518040657, -0.6793375611305237, 0.3034146726131439, -0.6681616306304932, -0.08566182851791382, -0.0038083791732788086, -0.12695860862731934, -0.06700994932370011, -0.40178210927342284, 0.8837961017807923,0.23018498940504542,-0.7649993896484375,0.2996063232421875,-0.7951202392578125
20230215-1536,2023-02-15 15:36:49Z,u02, 763,100,movements,misc1, lt, nd,281464.7724054167, -0.7909248686809468, -0.30789810433691406, 0.37992486607908926, 0.09600014239549637, 0.24409160017967224, -0.000541486544534564, -0.6775673031806946, 0.3030562698841095, -0.6701189279556274, -0.13978499174118042, -0.021195918321609497, -0.15684634447097778, -0.0670804561335425, -0.4005505498393575, 0.8843463073526504,0.23019760048700583,-0.817352294921875,0.2818603515625,-0.82696533203125
20230215-1536,2023-02-15 15:36:49Z,u02, 764,100,movements,misc1, lt, nd,281464.78242841666, -0.7884863808674217, -0.3071612853517565, 0.3807365762065201, 0.09127122908830643, 0.19490887224674225, 0.013696917332708836, -0.6760894060134888, 0.30235400795936584, -0.6719264388084412, -0.14561158418655396, -0.034409672021865845, -0.14023780822753906, -0.0668647852383334, -0.399456976697618, 0.884818277325942,0.23034725921897334,-0.8217010498046875,0.2679443359375,-0.812164306640625
20230215-1536,2023-02-15 15:36:49Z,u02, 765,100,movements,misc1, lt, nd,281464.79245141667, -0.7865038665303983, -0.30704172351120923, 0.38111647181767017, -0.034570060670375824, 0.17992113530635834, 0.0231386236846447, -0.6747815608978271, 0.3022400438785553, -0.6732909679412842, -0.11161059141159058, -0.0496765673160553, -0.08088994026184082, -0.06696312514718959, -0.39858555841725063, 0.8851825528831342,0.23042839321003042,-0.7863922119140625,0.2525634765625,-0.754180908203125
20230215-1536,2023-02-15 15:36:49Z,u02, 766,100,movements,misc1, lt, nd,281464.8024744167, -0.7849497756021402, -0.30773812134202627, 0.380554865054947, -0.13701674342155457, 0.16513845324516296, 0.0031553003937005997, -0.6735854744911194, 0.30290380120277405, -0.6741898059844971, -0.08344882726669312, 0.003355354070663452, -0.05661463737487793, -0.06756994430132755, -0.39791882627675373, 0.8854835123062017,0.23024752743041557,-0.7570343017578125,0.3062591552734375,-0.730804443359375
20230215-1536,2023-02-15 15:36:49Z,u02, 767,100,movements,misc1, lt, nd,281464.8124974167, -0.783761082188369, -0.3088220605739125, 0.3792111005144012, -0.19798582792282104, 0.15482322871685028, -0.01922750473022461, -0.6725513935089111, 0.303936630487442, -0.6747570633888245, -0.09684246778488159, 0.0955536961555481, -0.05406367778778076, -0.06846582486993105, -0.3974089801966996, 0.885760190877932,0.22979856859575074,-0.7693939208984375,0.3994903564453125,-0.72882080078125
20230215-1536,2023-02-15 15:36:49Z,u02, 768,100,movements,misc1, lt, nd,281464.8225194167, -0.7826264771051904, -0.30998283536432164, 0.37761549569511105, -0.16684143245220184, 0.16849642992019653, -0.026848431676626205, -0.6715361475944519, 0.3050422966480255, -0.6752691268920898, -0.07763981819152832, 0.09656903147697449, -0.043557167053222656, -0.06943990027855591, -0.39691755924537764, 0.8860462827898237,0.22925208857918822,-0.749176025390625,0.401611328125,-0.7188262939453125
20230215-1536,2023-02-15 15:36:49Z,u02, 769,100,movements,misc1, lt, nd,281464.8325424167, -0.7811765649390103, -0.31057242589451567, 0.3765712553113076, -0.06279386579990387, 0.18413345515727997, -0.0199577696621418, -0.6704295873641968, 0.3056037127971649, -0.6761142015457153, -0.07889896631240845, 0.007537096738815308, -0.09042626619338989, -0.07008077335463364, -0.39627210464724216, 0.8863911437111653,0.22883994483953604,-0.74932861328125,0.313140869140625,-0.76654052734375
20230215-1536,2023-02-15 15:36:49Z,u02, 770,100,movements,misc1, lt, nd,281464.8425654167, -0.7792640231105575, -0.3105501717500876, 0.3764844328190037, 0.04694429785013199, 0.20061522722244263, 0.013760540634393692, -0.6691400408744812, 0.30558252334594727, -0.6773999929428101, -0.09314322471618652, -0.03537991642951965, -0.14286667108535767, -0.07030662509928925, -0.39541999025666846, 0.8867819168288484,0.22873053233201243,-0.7622833251953125,0.27020263671875,-0.8202667236328125
20230215-1536,2023-02-15 15:36:49Z,u02, 771,100,movements,misc1, lt, nd,281464.85258841666, -0.7771151742314868, -0.31021838451656597, 0.37730186510970987, 0.08432149887084961, 0.17949795722961426, 0.05441076308488846, -0.6677539944648743, 0.3052666187286377, -0.67890864610672, -0.09352225065231323, -0.0739433765411377, -0.1374518871307373, -0.07024030466025111, -0.3944768482245342, 0.8871478170934711,0.22896088703816503,-0.7612762451171875,0.2313232421875,-0.8163604736328125
20230215-1536,2023-02-15 15:36:49Z,u02, 772,100,movements,misc1, lt, nd,281464.86261141667, -0.77497851918375, -0.310371582565993, 0.3780940368637496, -0.01041172631084919, 0.19214051961898804, 0.0742194876074791, -0.6662691235542297, 0.3054124712944031, -0.6803004145622253, -0.07631510496139526, -0.06484240293502808, -0.10288745164871216, -0.07039864988978477, -0.39356553172787906, 0.8874618294137934,0.22926328926142192,-0.742584228515625,0.240570068359375,-0.7831878662109375
20230215-1536,2023-02-15 15:36:49Z,u02, 773,100,movements,misc1, lt, nd,281464.8726334167, -0.7730707312998925, -0.31106146764505205, 0.3783238757856989, -0.06467709690332413, 0.1716884970664978, 0.05305135250091553, -0.6648227572441101, 0.30606934428215027, -0.6814192533493042, -0.07039147615432739, 0.018210411071777344, -0.12859350442886353, -0.0708859748599673, -0.39276651924726463, 0.8877377561564302,0.22941495049475238,-0.7352142333984375,0.32427978515625,-0.8100128173828125
20230215-1536,2023-02-15 15:36:50Z,u02, 774,100,movements,misc1, lt, nd,281464.8826564167, -0.7714857884895326, -0.31203604919630795, 0.37782555143123686, -0.14181259274482727, 0.1796148717403412, 0.018685391172766685, -0.663533627986908, 0.30699700117111206, -0.6822580099105835, -0.10068756341934204, 0.09223395586013794, -0.1508413553237915, -0.0716088690692598, -0.39210098075994476, 0.888003075745327,0.22930216659624675,-0.76422119140625,0.39923095703125,-0.833099365234375
20230215-1536,2023-02-15 15:36:50Z,u02, 775,100,movements,misc1, lt, nd,281464.8926794167, -0.769888162145954, -0.3130162975911432, 0.3768249064054806, -0.118421770632267, 0.20295748114585876, -0.008129444904625416, -0.6622329950332642, 0.30792975425720215, -0.6831007599830627, -0.07002097368240356, 0.049293726682662964, -0.14413917064666748, -0.07243397248237889, -0.39141145482145057, 0.8883270726839361,0.2289657675291164,-0.7322540283203125,0.3572235107421875,-0.827239990234375
20230215-1536,2023-02-15 15:36:50Z,u02, 776,100,movements,misc1, lt, nd,281464.9027024167, -0.7675853771865826, -0.3132924198612501, 0.3764673568928585, 0.031514283269643784, 0.2637723684310913, 0.001764757325872779, -0.6605991125106812, 0.3081924617290497, -0.6845627427101135, -0.05270344018936157, 0.00481104850769043, -0.21933740377426147, -0.07289306742816776, -0.39039113317589347, 0.8887888483651667,0.22876975580663195,-0.7133026123046875,0.3130035400390625,-0.903900146484375
20230215-1536,2023-02-15 15:36:50Z,u02, 777,100,movements,misc1, lt, nd,281464.9127254167, -0.7645675867310912, -0.3126061047034072, 0.37726574593026463, 0.1716785728931427, 0.2950461208820343, 0.025508970022201538, -0.6586765646934509, 0.3075394928455353, -0.6867057085037231, -0.04193073511123657, -0.04495096206665039, -0.21205222606658936, -0.07277021431711908, -0.3890393871499158, 0.8893581561155185,0.22889958872653673,-0.7006072998046875,0.2625885009765625,-0.8987579345703125
20230215-1536,2023-02-15 15:36:50Z,u02, 778,100,movements,misc1, lt, nd,281464.9227474167, -0.7608555461894743, -0.3112266536795689, 0.37924673279771404, 0.2764148414134979, 0.3177325129508972, 0.06138728931546211, -0.656414806842804, 0.30622658133506775, -0.689452588558197, -0.07802116870880127, -0.06857100129127502, -0.19955497980117798, -0.07218238614883263, -0.38738019490531406, 0.8899969865058994,0.2294159331782632,-0.73443603515625,0.2376556396484375,-0.889007568359375
20230215-1536,2023-02-15 15:36:50Z,u02, 779,100,movements,misc1, lt, nd,281464.93277041666, -0.7570484500335801, -0.3095691585853355, 0.38202203743444085, 0.2922569215297699, 0.256928026676178, 0.10103003680706024, -0.6541329622268677, 0.3046483099460602, -0.6923145651817322, -0.14896762371063232, -0.03356066346168518, -0.19408375024795532, -0.07132771451470622, -0.3856877830511035, 0.890588046111982,0.23023944677345531,-0.8031005859375,0.271087646484375,-0.8863983154296875
20230215-1536,2023-02-15 15:36:50Z,u02, 780,100,movements,misc1, lt, nd,281464.9427934167, -0.7540619949733746, -0.3089176316808319, 0.3844073304354624, 0.08481375873088837, 0.19916406273841858, 0.137416273355484, -0.6521981954574585, 0.3040276765823364, -0.6944095492362976, -0.15981346368789673, 0.013736575841903687, -0.12623858451843262, -0.07091569254042866, -0.38440367911219264, 0.890956264490035,0.23108795633708193,-0.81201171875,0.3177642822265625,-0.820648193359375
20230215-1536,2023-02-15 15:36:50Z,u02, 781,100,movements,misc1, lt, nd,281464.9528164167, -0.7519610749001138, -0.30983551996239567, 0.38533348854747174, -0.08024656772613525, 0.16357305645942688, 0.11888547241687775, -0.6505469679832458, 0.30490198731422424, -0.6955741047859192, -0.12496566772460938, 0.04559233784675598, -0.08907860517501831, -0.07139976927752961, -0.383555761191492, 0.8911559916143368,0.23157692576606817,-0.7755126953125,0.350494384765625,-0.7846527099609375
20230215-1536,2023-02-15 15:36:50Z,u02, 782,100,movements,misc1, lt, nd,281464.9628394167, -0.750719694243783, -0.3112326809783571, 0.3851227971830206, -0.16258813440799713, 0.09207835793495178, 0.051360834389925, -0.649391770362854, 0.3062323331832886, -0.6960690021514893, -0.1597665548324585, 0.14716732501983643, -0.18952059745788574, -0.07222168476704083, -0.38307899699766207, 0.8912713324408738,0.23166774323097883,-0.8091583251953125,0.453399658203125,-0.885589599609375
20230215-1536,2023-02-15 15:36:50Z,u02, 783,100,movements,misc1, lt, nd,281464.9728624167, -0.7502987147774175, -0.31269704608303495, 0.38395530733964794, -0.18299327790737152, 0.06810778379440308, -0.009490800090134144, -0.6487922072410583, 0.30762600898742676, -0.6960135698318481, -0.16891103982925415, 0.13631319999694824, -0.21330344676971436, -0.07316252217668197, -0.3829366347468696, 0.8913325344174244,0.23137214180682752,-0.8177032470703125,0.443939208984375,-0.9093170166015625
20230215-1536,2023-02-15 15:36:50Z,u02, 784,100,movements,misc1, lt, nd,281464.98288425, -0.7501031063435379, -0.31323490430240986, 0.38274224358883135, -0.049196235835552216, 0.033902138471603394, -0.07656871527433395, -0.648543119430542, 0.3081377446651459, -0.6960192918777466, -0.14503592252731323, 0.024305492639541626, -0.22934997081756592, -0.07366292642457037, -0.38283696444640214, 0.8914532505006132,0.23091243648017865,-0.7935791015625,0.3324432373046875,-0.9253692626953125
20230215-1536,2023-02-15 15:36:50Z,u02, 785,100,movements,misc1, lt, nd,281464.99290725, -0.7498609231088583, -0.31236410768728795, 0.3823419548675189, 0.11172553151845932, 0.03714267536997795, -0.0926550030708313, -0.648557186126709, 0.30730921030044556, -0.6963724493980408, -0.17291492223739624, 0.030550867319107056, -0.32692772150039673, -0.07336985685114106, -0.3826625792131114, 0.8916377603702662,0.2305824254529066,-0.82147216796875,0.337860107421875,-1.0233001708984375
20230215-1536,2023-02-15 15:36:50Z,u02, 786,100,movements,misc1, lt, nd,281465.00293025, -0.7497655885923573, -0.3105534151446105, 0.382655994597574, 0.17721310257911682, -0.02369058132171631, -0.08700130879878998, -0.648868978023529, 0.3055856227874756, -0.6968403458595276, -0.19558292627334595, -0.016172170639038086, -0.3006266951560974, -0.07249390178167033, -0.3825238058747508, 0.891810339836508,0.23042226450566103,-0.844451904296875,0.2894134521484375,-0.997467041015625
20230215-1536,2023-02-15 15:36:50Z,u02, 787,100,movements,misc1, lt, nd,281465.01295325, -0.7499998667392976, -0.308792431793339, 0.383298866263715, 0.13318945467472076, -0.06631900370121002, -0.05997554585337639, -0.6493979692459106, 0.30390840768814087, -0.6970809698104858, -0.19700700044631958, -0.02809053659439087, -0.22848665714263916, -0.07153975871485971, -0.3825461801821821, 0.8918761215487937,0.23042865229778622,-0.846405029296875,0.27581787109375,-0.925567626953125
20230215-1536,2023-02-15 15:36:50Z,u02, 788,100,movements,misc1, lt, nd,281465.02297625004, -0.7508032299943016, -0.30791384462850424, 0.38342311256665695, -0.006140606943517923, -0.10931680351495743, -0.03606565669178963, -0.6501396894454956, 0.3030712604522705, -0.696753978729248, -0.21288210153579712, 0.026274412870407104, -0.17517894506454468, -0.07102223642932909, -0.3828561772540648, 0.8917999714886041,0.23036849333058412,-0.8630218505859375,0.329345703125,-0.8719329833984375
20230215-1536,2023-02-15 15:36:50Z,u02, 789,100,movements,misc1, lt, nd,281465.03299825004, -0.7522077054273507, -0.3081850551842779, 0.382841164274891, -0.11883572489023209, -0.13647864758968353, -0.0016799878794699907, -0.651061475276947, 0.3033297061920166, -0.6957801580429077, -0.21582084894180298, 0.132217139005661, -0.1822715401649475, -0.07109584095653054, -0.3834779006181936, 0.8915695979125597,0.2302035151534122,-0.86688232421875,0.435546875,-0.8780517578125
20230215-1536,2023-02-15 15:36:50Z,u02, 790,100,movements,misc1, lt, nd,281465.04302125, -0.7540089318274503, -0.3096000452677649, 0.3816511561569668, -0.24545830488204956, -0.14559997618198395, 0.03756648302078247, -0.6520191431045532, 0.30467772483825684, -0.6942927241325378, -0.183063805103302, 0.15473386645317078, -0.20614361763000488, -0.0717629014487732, -0.38432240668316714, 0.8912125249448996,0.22997062553153083,-0.8350830078125,0.45941162109375,-0.9004364013671875
20230215-1536,2023-02-15 15:36:50Z,u02, 791,100,movements,misc1, lt, nd,281465.05304425, -0.7557697126965831, -0.3118417084990465, 0.38008987405431405, -0.27500128746032715, -0.10813968628644943, 0.059554606676101685, -0.6527705788612366, 0.306812047958374, -0.6926448345184326, -0.13124120235443115, 0.11683294177055359, -0.2384464144706726, -0.07288378367072759, -0.3851824712660331, 0.8908176735487997,0.22970893914167176,-0.7840118408203125,0.42364501953125,-0.93109130859375
20230215-1536,2023-02-15 15:36:50Z,u02, 792,100,movements,misc1, lt, nd,281465.06306725, -0.7569393321342871, -0.3138527663377233, 0.3789312713938293, -0.17146393656730652, -0.0656827762722969, 0.061369020491838455, -0.6531552076339722, 0.3087254762649536, -0.691430926322937, -0.11411768198013306, 0.0868586003780365, -0.2859554886817932, -0.07389020340954769, -0.3857781476025975, 0.8905130813879528,0.22956859742940797,-0.76727294921875,0.3955841064453125,-0.977386474609375
20230215-1536,2023-02-15 15:36:50Z,u02, 793,100,movements,misc1, lt, nd,281465.07309025, -0.7576442909303167, -0.3149182097866524, 0.3785468691319865, -0.05110583454370499, -0.05076773837208748, 0.048013001680374146, -0.653416097164154, 0.3097386956214905, -0.6907309889793396, -0.14107853174209595, 0.07748359441757202, -0.3304634690284729, -0.07436941700095978, -0.38613947332648824, 0.8903085654388522,0.22960000035726452,-0.79449462890625,0.3872222900390625,-1.0211944580078125
20230215-1536,2023-02-15 15:36:50Z,u02, 794,100,movements,misc1, lt, nd,281465.08311225, -0.7577508234829734, -0.3150481768858445, 0.3790390326811774, 0.0654098391532898, -0.01798715628683567, 0.04190048575401306, -0.6534619927406311, 0.30986228585243225, -0.6906321048736572, -0.16224229335784912, 0.05611976981163025, -0.3385274410247803, -0.07432141612902228, -0.3862127317533451, 0.8902176200337775,0.22984458345381234,-0.815704345703125,0.3659820556640625,-1.0291595458984375
20230215-1536,2023-02-15 15:36:50Z,u02, 795,100,movements,misc1, lt, nd,281465.09313525003, -0.7574993865197595, -0.31451107535195727, 0.38009020613054667, 0.13249753415584564, 0.0008549736812710762, 0.03979925066232681, -0.6534026265144348, 0.3093515634536743, -0.6909172534942627, -0.18494576215744019, 0.030980467796325684, -0.3104560375213623, -0.07390243808902806, -0.3861085552213443, 0.890202229506756,0.23021418940486518,-0.838348388671875,0.34033203125,-1.001373291015625
20230215-1536,2023-02-15 15:36:50Z,u02, 796,100,movements,misc1, lt, nd,281465.10315825004, -0.757087855613689, -0.31368990033383676, 0.3813890751880151, 0.13388779759407043, -0.008011488243937492, 0.04090432822704315, -0.6532924771308899, 0.3085705637931824, -0.6913704872131348, -0.2235996127128601, 0.05576354265213013, -0.28597021102905273, -0.07332466767653932, -0.38592519224497635, 0.8902189902166503,0.23064125901882648,-0.87689208984375,0.3643341064453125,-0.9773406982421875
20230215-1536,2023-02-15 15:36:50Z,u02, 797,100,movements,misc1, lt, nd,281465.11318125, -0.756890847426971, -0.3130418525575639, 0.3825819309580309, 0.09170891344547272, -0.030851289629936218, 0.04900859296321869, -0.6532934308052063, 0.3079540729522705, -0.6916443705558777, -0.2331201434135437, 0.06268191337585449, -0.2714751362800598, -0.0728217092891468, -0.3858429910453684, 0.8901878236274827,0.23105782050869894,-0.88641357421875,0.370635986328125,-0.9631195068359375
20230215-1536,2023-02-15 15:36:50Z,u02, 798,100,movements,misc1, lt, nd,281465.12320425, -0.7570131509846468, -0.3128297990758228, 0.38339796960726424, 0.026500407606363297, -0.04897649586200714, 0.0480194166302681, -0.6534228920936584, 0.3077523112297058, -0.6916119456291199, -0.22314876317977905, 0.0710318386554718, -0.25881218910217285, -0.07255342968313187, -0.3859145242022212, 0.8900924407244715,0.23139036530810628,-0.8765716552734375,0.3787841796875,-0.9504241943359375
20230215-1536,2023-02-15 15:36:50Z,u02, 799,100,movements,misc1, lt, nd,281465.13322625, -0.7574993833908861, -0.3129318336277913, 0.3837664041331563, -0.011375866830348969, -0.07489065080881119, 0.03215043991804123, -0.653737485408783, 0.3078494071960449, -0.6912713050842285, -0.21547943353652954, 0.08865022659301758, -0.255612850189209, -0.07247255958160043, -0.3861503146310589, 0.8899450912947524,0.23158884100037153,-0.8692169189453125,0.3964996337890625,-0.9468841552734375
20230215-1536,2023-02-15 15:36:50Z,u02, 800,100,movements,misc1, lt, nd,281465.14324925, -0.7582715252991016, -0.3132579005750107, 0.38369974665277123, -0.06396611034870148, -0.07573993504047394, 0.019229687750339508, -0.6542019844055176, 0.30815961956977844, -0.6906933784484863, -0.21770042181015015, 0.10527724027633667, -0.2639116644859314, -0.07254467408065299, -0.38651076008598273, 0.8897690582410643,0.23164116749791935,-0.8719024658203125,0.4134368896484375,-0.9546051025390625
20230215-1536,2023-02-15 15:36:50Z,u02, 801,100,movements,misc1, lt, nd,281465.16329525004, -0.7598752863600696, -0.31342052100717804, 0.3831397652059258, 0.00649270648136735, -0.08349612355232239, -0.016397574916481972, -0.6552743315696716, 0.30831432342529297, -0.6896070241928101, -0.23936372995376587, 0.11670398712158203, -0.31548941135406494, -0.0725414423620932, -0.387213413479021, 0.8895065125737842,0.23147719761494315,-0.8567962646484375,0.4095001220703125,-0.96112060546875
20230215-1536,2023-02-15 15:36:50Z,u02, 802,100,movements,misc1, lt, nd,281465.15327225, -0.7590561769541186, -0.31355338509494673, 0.38336535009657663, -0.04416816681623459, -0.0746254026889801, -0.006254899315536022, -0.6546810269355774, 0.3084407150745392, -0.6901137828826904, -0.20211517810821533, 0.10105937719345093, -0.2710067629814148, -0.07265316366601074, -0.3868651262657899, 0.8896247558213765,0.2315698588236021,-0.8946380615234375,0.425018310546875,-1.005096435546875
20230215-1536,2023-02-15 15:36:50Z,u02, 804,100,movements,misc1, lt, nd,281465.18334025, -0.7609432057551275, -0.3122151718749467, 0.38351836717795107, 0.06980791687965393, -0.03210217505693436, -0.002267268253490329, -0.6562662124633789, 0.3071674704551697, -0.6891754865646362, -0.24102681875228882, 0.07918506860733032, -0.29153740406036377, -0.07179518634330537, -0.3876308855684655, 0.8893835451242023,0.2314838171755151,-0.898406982421875,0.3984832763671875,-0.9822845458984375
20230215-1536,2023-02-15 15:36:50Z,u02, 804,100,movements,misc1, lt, nd,281465.17331825, -0.7605763710857596, -0.31293069805366536, 0.3831783544196631, 0.03610040247440338, -0.06748759746551514, -0.017974166199564934, -0.6558616757392883, 0.30784833431243896, -0.6892567873001099, -0.24254530668258667, 0.09063494205474854, -0.29302775859832764, -0.07222959834400507, -0.3874977352138687, 0.8894181940894874,0.2314383677351752,-0.8972930908203125,0.3863525390625,-0.980712890625
20230215-1536,2023-02-15 15:36:50Z,u02, 806,100,movements,misc1, lt, nd,281465.19336325, -0.760592345803488, -0.31134723621220795, 0.38425503834673447, 0.10825703293085098, 0.03682629019021988, 0.02269347384572029, -0.6562078595161438, 0.30634137988090515, -0.6895985007286072, -0.22951900959014893, 0.09787917137145996, -0.31679481267929077, -0.07129752878798402, -0.38744986782543384, 0.8894578445282242,0.23165459564455754,-0.8857269287109375,0.4042205810546875,-1.0063934326171875
20230215-1536,2023-02-15 15:36:50Z,u02, 806,100,movements,misc1, lt, nd,281465.20338625, -0.7595601157204595, -0.31025887334219765, 0.3854431362668345, 0.1315767765045166, 0.06970194727182388, 0.041816625744104385, -0.6557249426841736, 0.305305153131485, -0.6905169486999512, -0.21056228876113892, 0.08844786882400513, -0.32144594192504883, -0.07069113407446063, -0.38696808699720137, 0.8896350410743279,0.23196556265691498,-0.8662872314453125,0.3937530517578125,-1.011962890625
20230215-1536,2023-02-15 15:36:50Z,u02, 807,100,movements,misc1, lt, nd,281465.21340925, -0.7581662599222002, -0.30905817291000526, 0.3868047270164585, 0.11538635939359665, 0.08500367403030396, 0.06080043688416481, -0.655013382434845, 0.30416157841682434, -0.6916958689689636, -0.21142637729644775, 0.09032389521598816, -0.3136141300201416, -0.07004236726677265, -0.38632385520956203, 0.8898729456176508,0.23232315316003346,-0.8664398193359375,0.3944854736328125,-1.00531005859375
20230215-1536,2023-02-15 15:36:50Z,u02, 808,100,movements,misc1, lt, nd,281465.22343225003, -0.7565647110163342, -0.30696176130642294, 0.3882221069114559, 0.12164297699928284, 0.05669640377163887, 0.05384625494480133, -0.6543409824371338, 0.3021638095378876, -0.6932061910629272, -0.20747536420822144, 0.08260178565979004, -0.290802538394928, -0.06899914067573107, -0.3855334107117128, 0.8902376037645504,0.2325512548546461,-0.86181640625,0.384765625,-0.9840087890625
20230215-1536,2023-02-15 15:36:50Z,u02, 809,100,movements,misc1, lt, nd,281465.23345425003, -0.7552319352672494, -0.3043533728347765, 0.3897283203125711, 0.14523592591285706, 0.006836699787527323, 0.03735276311635971, -0.6539545655250549, 0.2996763288974762, -0.6946491599082947, -0.23331350088119507, 0.0917116105556488, -0.28932905197143555, -0.06767449556914348, -0.38483187030321203, 0.8905920300396097,0.23274527158854041,-0.88726806640625,0.391387939453125,-0.983978271484375
20230215-1536,2023-02-15 15:36:50Z,u02, 810,100,movements,misc1, lt, nd,281465.24347725004, -0.7548962358713825, -0.30293688184269113, 0.39117509621523083, 0.17080910503864288, -0.04987797886133194, 0.03428887948393822, -0.6540115475654602, 0.2983246445655823, -0.6951771974563599, -0.2429305911064148, 0.07066339254379272, -0.27897441387176514, -0.06678919193328609, -0.3846434915208451, 0.8906358963669307,0.23314437765028978,-0.896942138671875,0.368988037109375,-0.974151611328125
20230215-1536,2023-02-15 15:36:50Z,u02, 811,100,movements,misc1, lt, nd,281465.25350025, -0.7550741008324552, -0.30158859835675156, 0.39269549367257617, 0.17854346334934235, -0.08183377981185913, 0.028089838102459908, -0.6544102430343628, 0.2970374822616577, -0.695353090763092, -0.22263437509536743, 0.0466972291469574, -0.26286834478378296, -0.0658610474175887, -0.384689199195445, 0.8905645597150235,0.2336047516932015,-0.877044677734375,0.3437347412109375,-0.958221435546875
20230215-1536,2023-02-15 15:36:50Z,u02, 812,100,movements,misc1, lt, nd,281465.26352325, -0.7553289946759844, -0.300289126007551, 0.3942745272091765, 0.18037673830986023, -0.07889551669359207, 0.037624433636665344, -0.6548515558242798, 0.29579639434814453, -0.6954667568206787, -0.18065869808197021, 0.05144786834716797, -0.2491590976715088, -0.06493486429217324, -0.38477278136143267, 0.8904661254695749,0.23410155503321864,-0.83551025390625,0.3472442626953125,-0.9446258544921875
20230215-1536,2023-02-15 15:36:50Z,u02, 813,100,movements,misc1, lt, nd,281465.27354625, -0.7556591445229167, -0.29914468480539214, 0.3957780419182989, 0.15684983134269714, -0.08127611130475998, 0.03622840717434883, -0.6553128361701965, 0.2947029769420624, -0.6954964399337769, -0.13136929273605347, 0.06220009922981262, -0.22038185596466064, -0.06408499969729303, -0.38489596506958124, 0.8903452054886843,0.23459253511370803,-0.78668212890625,0.356903076171875,-0.9158782958984375
20230215-1536,2023-02-15 15:36:50Z,u02, 814,100,movements,misc1, lt, nd,281465.28356825, -0.7560866620228933, -0.2981516306497074, 0.39716258012561173, 0.14313003420829773, -0.09936083853244781, 0.03493005782365799, -0.655810534954071, 0.29375389218330383, -0.695428729057312, -0.12008357048034668, 0.07146519422531128, -0.2053585648536682, -0.0633155015185159, -0.38506724612273463, 0.8902032215179796,0.2350583737497034,-0.7758941650390625,0.3652191162109375,-0.900787353515625
20230215-1536,2023-02-15 15:36:50Z,u02, 815,100,movements,misc1, lt, nd,281465.29359125, -0.7568940231763901, -0.2972634131669288, 0.3983666167791809, 0.1274365484714508, -0.1423695683479309, 0.021794818341732025, -0.6565507054328918, 0.29290473461151123, -0.6950884461402893, -0.12648457288742065, 0.08951103687286377, -0.2015332579612732, -0.06258370450634658, -0.3854076393540921, 0.8899982161906821,0.2354727213811709,-0.7830352783203125,0.382415771484375,-0.8966217041015625
20230215-1536,2023-02-15 15:36:50Z,u02, 816,100,movements,misc1, lt, nd,281465.30361425004, -0.7581838388446908, -0.2963625873929214, 0.3993532403912818, 0.11912877857685089, -0.17511552572250366, 0.003990520723164082, -0.6576278209686279, 0.2920432984828949, -0.6944323182106018, -0.1376144289970398, 0.0876258909702301, -0.1844434142112732, -0.06183091165134207, -0.3859543610458597, 0.8897264812408008,0.23580263085056963,-0.7952423095703125,0.379669189453125,-0.878875732421875
20230215-1536,2023-02-15 15:36:50Z,u02, 817,100,movements,misc1, lt, nd,281465.31363725004, -0.7600832603997, -0.29531500773052616, 0.40006879769288767, 0.10600898414850235, -0.2577259838581085, -0.03727808967232704, -0.6591561436653137, 0.29104122519493103, -0.6934033632278442, -0.15255039930343628, 0.07053101062774658, -0.16935908794403076, -0.0609913512930009, -0.3867536370990509, 0.8893836139742419,0.2360053033580109,-0.81170654296875,0.361572265625,-0.862762451171875
20230215-1536,2023-02-15 15:36:50Z,u02, 818,100,movements,misc1, lt, nd,281465.32366025, -0.7629472183207203, -0.29414929501186843, 0.40035779928827, 0.09227430820465088, -0.3276158571243286, -0.07357234507799149, -0.6613733172416687, 0.28992578387260437, -0.6917574405670166, -0.1940954327583313, 0.059820860624313354, -0.16767853498458862, -0.06006651371476407, -0.38796041463579506, 0.8889152320245239,0.23602628490232508,-0.85546875,0.3497467041015625,-0.85943603515625
20230215-1536,2023-02-15 15:36:50Z,u02, 819,100,movements,misc1, lt, nd,281465.33368225, -0.7665105683388014, -0.29273185024910925, 0.4003434758403498, 0.10475121438503265, -0.38112273812294006, -0.11541486531496048, -0.6641184687614441, 0.2885689437389374, -0.6896917223930359, -0.2131398320198059, 0.030370265245437622, -0.1730859875679016, -0.059003728662116985, -0.38945178886783693, 0.8883706744363903,0.23588872151590948,-0.87725830078125,0.318939208984375,-0.8627777099609375
20230215-1536,2023-02-15 15:36:50Z,u02, 820,100,movements,misc1, lt, nd,281465.34370525, -0.7706022213333764, -0.29074659836091055, 0.4002600151142879, 0.16193732619285583, -0.42686840891838074, -0.16025277972221375, -0.6673325896263123, 0.2866675555706024, -0.6873782873153687, -0.22590166330337524, 0.017287492752075195, -0.20452845096588135, -0.05763463762418391, -0.3911382319308553, 0.8877862104149827,0.2356367654077264,-0.8932342529296875,0.303955078125,-0.89190673828125
20230215-1536,2023-02-15 15:36:50Z,u02, 821,100,movements,misc1, lt, nd,281465.35372825, -0.7747660184147827, -0.2880557644973251, 0.4004457941571206, 0.23734846711158752, -0.41488683223724365, -0.1729118525981903, -0.6707261204719543, 0.2840886414051056, -0.685142457485199, -0.21220844984054565, 0.016967296600341797, -0.2317734956741333, -0.05588478930651995, -0.3928176090284935, 0.8872242083202723,0.2353814517337452,-0.8829345703125,0.301055908203125,-0.9169158935546875
20230215-1536,2023-02-15 15:36:50Z,u02, 822,100,movements,misc1, lt, nd,281465.36375125, -0.7785798341337367, -0.2848897186603436, 0.40109873581413286, 0.28911954164505005, -0.3858426809310913, -0.17008231580257416, -0.6739624738693237, 0.2810516059398651, -0.6832163333892822, -0.1383848786354065, 0.03822329640388489, -0.24483847618103027, -0.05386942330739108, -0.39432211192313377, 0.8867198963004436,0.23523590524831667,-0.812347412109375,0.31927490234375,-0.9280548095703125
20230215-1536,2023-02-15 15:36:50Z,u02, 823,100,movements,misc1, lt, nd,281465.37377425004, -0.7819698323153107, -0.2816545185742671, 0.4020774813958374, 0.28557088971138, -0.3476039469242096, -0.13787829875946045, -0.6769119501113892, 0.277945339679718, -0.6815692782402039, -0.07902371883392334, 0.059945255517959595, -0.23205071687698364, -0.05180880631741583, -0.3956402605054106, 0.8862637743995945,0.23520459843267583,-0.7559356689453125,0.337890625,-0.9136199951171875
20230215-1536,2023-02-15 15:36:50Z,u02, 824,100,movements,misc1, lt, nd,281465.38379625004, -0.7849645066878044, -0.2788238982019486, 0.40312157366182727, 0.24490846693515778, -0.3140678107738495, -0.1124085858464241, -0.6795032620429993, 0.2752251625061035, -0.6800928711891174, -0.03527939319610596, 0.07372808456420898, -0.19452565908432007, -0.04996551633998208, -0.39680852836027036, 0.885833556701805,0.2352556500407392,-0.71478271484375,0.3489532470703125,-0.8746185302734375
20230215-1536,2023-02-15 15:36:50Z,u02, 825,100,movements,misc1, lt, nd,281465.39381925, -0.7878150664799812, -0.2763935328086111, 0.4040197299558865, 0.20804552733898163, -0.3086022138595581, -0.09968000650405884, -0.681911289691925, 0.27288785576820374, -0.6786230206489563, -0.045841336250305176, 0.10823091864585876, -0.1649743914604187, -0.048349716525135394, -0.39793317096564995, 0.8854061144833597,0.23530279494357084,-0.727752685546875,0.3811187744140625,-0.843597412109375
20230215-1536,2023-02-15 15:36:50Z,u02, 826,100,movements,misc1, lt, nd,281465.40384225, -0.7907525924968654, -0.2743405362947872, 0.40467685973227585, 0.16430890560150146, -0.31473013758659363, -0.09836703538894653, -0.6842986345291138, 0.27091220021247864, -0.6770095229148865, -0.06815797090530396, 0.12265771627426147, -0.13401031494140625, -0.04694277801135374, -0.399113537557991, 0.884949340508049,0.23530676725746955,-0.7524566650390625,0.3935699462890625,-0.8110198974609375
20230215-1536,2023-02-15 15:36:50Z,u02, 827,100,movements,misc1, lt, nd,281465.41386525, -0.7936510622630193, -0.27250233861028156, 0.40517372438720034, 0.15688587725162506, -0.2948531210422516, -0.08810081332921982, -0.6866119503974915, 0.2691422700881958, -0.6753714084625244, -0.08197319507598877, 0.0837935209274292, -0.12344145774841309, -0.045669918730085884, -0.40028560843918976, 0.8844956032642369,0.2352727547462407,-0.768585205078125,0.352935791015625,-0.7988128662109375
20230215-1536,2023-02-15 15:36:50Z,u02, 828,100,movements,misc1, lt, nd,281465.42388825, -0.7963168021314763, -0.27066777405257086, 0.40582083966198673, 0.18116076290607452, -0.26911818981170654, -0.07773438841104507, -0.6887616515159607, 0.2673749625682831, -0.6738828420639038, -0.0740099549293518, 0.03679373860359192, -0.1278902292251587, -0.0443961333023103, -0.4013571520427957, 0.884068259048711,0.23529733163096886,-0.7627716064453125,0.304168701171875,-0.8017730712890625
20230215-1536,2023-02-15 15:36:50Z,u02, 829,100,movements,misc1, lt, nd,281465.43391025, -0.7986056190048029, -0.2687896941078066, 0.4066938476804065, 0.1949106752872467, -0.2357487827539444, -0.06745698302984238, -0.6906607151031494, 0.26556476950645447, -0.6726537346839905, -0.07116484642028809, 0.012038379907608032, -0.13371217250823975, -0.04310161636927383, -0.40226281582277257, 0.8836924243747147,0.23540286703423102,-0.7618255615234375,0.2776031494140625,-0.806365966796875
20230215-1536,2023-02-15 15:36:50Z,u02, 830,100,movements,misc1, lt, nd,281465.44393325003, -0.8006683333535156, -0.26688523695611294, 0.4076687893298452, 0.19833718240261078, -0.23485875129699707, -0.0665917918086052, -0.692408561706543, 0.26372823119163513, -0.671578586101532, -0.06723499298095703, 0.013905435800552368, -0.12192416191101074, -0.04180115018243534, -0.4030674372089373, 0.8833513575774209,0.23554126014655596,-0.7596435546875,0.2776336669921875,-0.7935028076171875
20230215-1536,2023-02-15 15:36:50Z,u02, 831,100,movements,misc1, lt, nd,281465.45395625004, -0.8027950415026731, -0.2651171431899182, 0.4086951192039078, 0.17808517813682556, -0.24514228105545044, -0.045130714774131775, -0.6941695809364319, 0.26202231645584106, -0.6704274415969849, -0.07594150304794312, 0.021928489208221436, -0.10160624980926514, -0.04054423425451403, -0.40390895539400945, 0.8829764210902122,0.23572529416290464,-0.770111083984375,0.2839508056640625,-0.77203369140625
20230215-1536,2023-02-15 15:36:50Z,u02, 832,100,movements,misc1, lt, nd,281465.46397925, -0.805132666295603, -0.26372726606248004, 0.40956484208044946, 0.1277388632297516, -0.26979437470436096, -0.04031558334827423, -0.6959967017173767, 0.26068076491355896, -0.6690546274185181, -0.06544733047485352, 0.012482106685638428, -0.06527459621429443, -0.03946472540475335, -0.40486445422124423, 0.8825384636369468,0.23590916926711358,-0.761444091796875,0.273162841796875,-0.7343292236328125
20230215-1536,2023-02-15 15:36:50Z,u02, 833,100,movements,misc1, lt, nd,281465.47400225, -0.8078571119115714, -0.2626258970437824, 0.41010864548893367, 0.09378515183925629, -0.30357256531715393, -0.039984554052352905, -0.6980240941047668, 0.25961729884147644, -0.6673539280891418, -0.08552998304367065, 0.03351929783821106, -0.05649244785308838, -0.038535667099025436, -0.40600249460399096, 0.8820307372016115,0.2360059606307077,-0.7835540771484375,0.2931365966796875,-0.723846435546875
20230215-1536,2023-02-15 15:36:50Z,u02, 834,100,movements,misc1, lt, nd,281465.48402425, -0.8109239356206012, -0.26179496383526607, 0.4102759106456816, 0.037964895367622375, -0.319671630859375, -0.05735153332352638, -0.7002235651016235, 0.2588147819042206, -0.6653584837913513, -0.06617963314056396, 0.05000784993171692, -0.03166306018829346, -0.03776472870257335, -0.40730159338966077, 0.8814693594027676,0.23598958678778537,-0.7664031982421875,0.3088226318359375,-0.697021484375
20230215-1536,2023-02-15 15:36:50Z,u02, 835,100,movements,misc1, lt, nd,281465.49404725, -0.8142129082696337, -0.2611051336798794, 0.4100000323535542, 0.02186742052435875, -0.3168303072452545, -0.0711512342095375, -0.7025378346443176, 0.2581483721733093, -0.6631742715835571, -0.04326599836349487, 0.024627476930618286, -0.02618730068206787, -0.03712190851950505, -0.408698948263678, 0.8808989181295599,0.23580570430880848,-0.7458038330078125,0.28277587890625,-0.689361572265625
20230215-1536,2023-02-15 15:36:50Z,u02, 836,100,movements,misc1, lt, nd,281465.50407025, -0.8173550336322154, -0.26027028037898176, 0.4097029020908317, 0.04110784828662872, -0.3158350884914398, -0.08989046514034271, -0.7047750353813171, 0.25734174251556396, -0.6611106991767883, -0.04052525758743286, -0.008623480796813965, -0.06516188383102417, -0.036436068069313814, -0.41002079122972657, 0.8803729096522003,0.2355820587098933,-0.74530029296875,0.24871826171875,-0.7262725830078125
20230215-1536,2023-02-15 15:36:50Z,u02, 837,100,movements,misc1, lt, nd,281465.51409325004, -0.8205716593054184, -0.25915249865724377, 0.4095121428861084, 0.0802730917930603, -0.30547434091567993, -0.08509916812181473, -0.7071079015731812, 0.2562614381313324, -0.6590360403060913, -0.04353296756744385, -0.013051599264144897, -0.06737387180328369, -0.03559292652145024, -0.4113576727318603, 0.8798447063381462,0.23535351317151032,-0.750640869140625,0.2432098388671875,-0.726409912109375
20230215-1536,2023-02-15 15:36:50Z,u02, 838,100,movements,misc1, lt, nd,281465.52411625005, -0.8235397726444407, -0.2580251012308573, 0.40954142074767214, 0.06246373429894447, -0.29279235005378723, -0.0697588324546814, -0.7092723846435547, 0.255171537399292, -0.6571303009986877, -0.025621414184570312, -0.012297362089157104, -0.051075875759124756, -0.03473009889300717, -0.4125877637349575, 0.8793406338615198,0.23521341654955766,-0.734893798828125,0.2428741455078125,-0.7082061767578125
20230215-1536,2023-02-15 15:36:50Z,u02, 839,100,movements,misc1, lt, nd,281465.53413825, -0.8265319948365727, -0.2572800345770118, 0.409363690793541, 0.008782929740846157, -0.30152058601379395, -0.05609814077615738, -0.7113751173019409, 0.25445106625556946, -0.6551336646080017, -0.015446722507476807, -0.015589982271194458, -0.010576784610748291, -0.03407974571226122, -0.41384988977543385, 0.878816327315538,0.2350506641673378,-0.7268218994140625,0.238861083984375,-0.66571044921875
20230215-1536,2023-02-15 15:36:50Z,u02, 840,100,movements,misc1, lt, nd,281465.54416125, -0.8297634444529983, -0.2570890506996767, 0.4089502049535758, -0.04636594280600548, -0.3238472044467926, -0.019560931250452995, -0.7135242819786072, 0.2542663514614105, -0.6528642773628235, -0.03327131271362305, 0.00409543514251709, 0.007982075214385986, -0.03369990433814776, -0.4152495476048477, 0.8782137598585982,0.23488877491466992,-0.746795654296875,0.25836181640625,-0.6448822021484375
20230215-1536,2023-02-15 15:36:50Z,u02, 841,100,movements,misc1, lt, nd,281465.55418425, -0.8331204181744178, -0.2573134718691257, 0.40838338941703006, -0.06261122226715088, -0.3188234269618988, -0.01989515870809555, -0.7156696319580078, 0.2544834017753601, -0.6504269242286682, -0.008787095546722412, 0.008883267641067505, 0.03819853067398071, -0.03352453195383763, -0.41672851633241614, 0.8775600401305149,0.23473773277085744,-0.724456787109375,0.26336669921875,-0.6122283935546875
20230215-1536,2023-02-15 15:36:50Z,u02, 842,100,movements,misc1, lt, nd,281465.56420725, -0.8363475523632372, -0.257323575468263, 0.4078807128960082, -0.011030284687876701, -0.29587629437446594, -0.03857238590717316, -0.7177630066871643, 0.25449317693710327, -0.6481122374534607, -0.001505732536315918, 0.01378682255744934, 0.009241998195648193, -0.03325534830141645, -0.4181363137970516, 0.8769444129646553,0.23457300180460006,-0.719268798828125,0.268280029296875,-0.6388702392578125
20230215-1536,2023-02-15 15:36:50Z,u02, 843,100,movements,misc1, lt, nd,281465.57423025003, -0.8391013745965221, -0.2568661236765093, 0.40762171061316305, 0.02953232266008854, -0.23643215000629425, -0.05911121517419815, -0.7196316123008728, 0.25405076146125793, -0.6462109088897705, 0.022594928741455078, -0.002646923065185547, -0.006651639938354492, -0.03278134819815984, -0.41930887410702944, 0.8764432152848094,0.23441999379074122,-0.6970367431640625,0.25140380859375,-0.652862548828125
20230215-1536,2023-02-15 15:36:50Z,u02, 844,100,movements,misc1, lt, nd,281465.58425225003, -0.8412575846500683, -0.2559279073036207, 0.4075247849889, 0.08230715990066528, -0.19750258326530457, -0.08767228573560715, -0.7212006449699402, 0.25314319133758545, -0.6448162794113159, 0.07552504539489746, -0.04293814301490784, -0.009801030158996582, -0.03212808636617542, -0.4201900084613651, 0.8760939980822303,0.23423778590328465,-0.6456756591796875,0.210205078125,-0.6546173095703125
20230215-1536,2023-02-15 15:36:50Z,u02, 845,100,movements,misc1, lt, nd,281465.59427525004, -0.8430305006607268, -0.25448262320830184, 0.407662835945669, 0.1141393855214119, -0.16612282395362854, -0.10238784551620483, -0.7226151823997498, 0.25174471735954285, -0.6437793970108032, 0.08859723806381226, -0.053441524505615234, -0.029545187950134277, -0.031243279544892158, -0.420873101860369, 0.8758466285624021,0.23405640011783144,-0.6340179443359375,0.19830322265625,-0.6733245849609375
20230215-1536,2023-02-15 15:36:50Z,u02, 846,100,movements,misc1, lt, nd,281465.60429825, -0.8445454017162545, -0.25287997502836185, 0.40781197504936345, 0.11603750288486481, -0.1539684236049652, -0.1129940003156662, -0.7238903045654297, 0.25019338726997375, -0.6429510116577148, 0.10812193155288696, -0.06254079937934875, 0.019125938415527344, -0.030316086139813233, -0.42143258650609283, 0.8756665623441713,0.23384500084294146,-0.6157684326171875,0.187652587890625,-0.6238250732421875
20230215-1536,2023-02-15 15:36:50Z,u02, 847,100,movements,misc1, lt, nd,281465.61432125, -0.8461327986841398, -0.25114103860893705, 0.407979257649437, 0.13093122839927673, -0.17394345998764038, -0.11845321208238602, -0.7252346873283386, 0.24850936233997345, -0.6420885324478149, 0.0852506160736084, -0.055943459272384644, 0.04807919263839722, -0.02931586427635344, -0.42201457977075246, 0.8754815673793546,0.23361558614391909,-0.639984130859375,0.19256591796875,-0.5940093994140625
20230215-1536,2023-02-15 15:36:50Z,u02, 848,100,movements,misc1, lt, nd,281465.62434425, -0.8479453526896549, -0.24946770342362207, 0.4081556657443867, 0.10406404733657837, -0.19804081320762634, -0.10106553882360458, -0.7267081141471863, 0.2468881756067276, -0.6410471200942993, 0.07459330558776855, -0.025513678789138794, 0.09264630079269409, -0.028317200532854324, -0.4226991432232779, 0.8752405095482524,0.23340413220731154,-0.6521148681640625,0.22137451171875,-0.54840087890625
20230215-1536,2023-02-15 15:36:50Z,u02, 849,100,movements,misc1, lt, nd,281465.63436625, -0.8499693854690606, -0.24826973767273508, 0.40816436904539666, 0.05471193790435791, -0.20771154761314392, -0.06883089989423752, -0.728225827217102, 0.24572712182998657, -0.6397697329521179, 0.11279308795928955, -0.04000812768936157, 0.13786238431930542, -0.027542687856970387, -0.4235050617477717, 0.8749273420056436,0.23321021821734286,-0.6154327392578125,0.205718994140625,-0.5019073486328125
20230215-1536,2023-02-15 15:36:50Z,u02, 850,100,movements,misc1, lt, nd,281465.64438925, -0.8520054586690209, -0.2476138273810224, 0.40816511722344, 0.026707183569669724, -0.19788475334644318, -0.022999471053481102, -0.7296481132507324, 0.2450912594795227, -0.6383916735649109, 0.14859342575073242, -0.042988598346710205, 0.15261292457580566, -0.02701150311925709, -0.42435190309541276, 0.8745591022597052,0.23311425204025543,-0.5810546875,0.2021026611328125,-0.48577880859375
20230215-1536,2023-02-15 15:36:50Z,u02, 851,100,movements,misc1, lt, nd,281465.65441225003, -0.8538591292106981, -0.2473635421023648, 0.4082627698800775, 0.0196458101272583, -0.18111295998096466, 0.004679827019572258, -0.7308763861656189, 0.2448486089706421, -0.6370783448219299, 0.17507505416870117, -0.03311765193939209, 0.16645145416259766, -0.02666267752927444, -0.4251469639176409, 0.8741781627040844,0.23313437643935409,-0.5558013916015625,0.21173095703125,-0.4706268310546875
20230215-1536,2023-02-15 15:36:50Z,u02, 852,100,movements,misc1, lt, nd,281465.66443525004, -0.8554959589174511, -0.24720411084029056, 0.40847167079168956, 0.028967028483748436, -0.15761828422546387, 0.0023718783631920815, -0.731947660446167, 0.24469402432441711, -0.6359066963195801, 0.19186288118362427, -0.03422956168651581, 0.15958839654922485, -0.02635606642076077, -0.42585443639943193, 0.8738209022604674,0.23321708500889643,-0.5400848388671875,0.2104644775390625,-0.476318359375
20230215-1536,2023-02-15 15:36:50Z,u02, 853,100,movements,misc1, lt, nd,281465.67445825, -0.856470509565918, -0.24673639900516095, 0.4089097824579626, 0.06904813647270203, -0.13069745898246765, -0.013834788464009762, -0.7326534390449524, 0.24424050748348236, -0.6352680325508118, 0.20709502696990967, -0.040596723556518555, 0.13734322786331177, -0.025939897043082256, -0.42625475486194164, 0.8736074434456774,0.2333322118024105,-0.5255584716796875,0.203643798828125,-0.4979248046875
20230215-1536,2023-02-15 15:36:50Z,u02, 854,100,movements,misc1, lt, nd,281465.68448025, -0.8574477055090934, -0.24589698505622298, 0.4094935809505886, 0.111459881067276, -0.09735148400068283, -0.03254099190235138, -0.7334286570549011, 0.24342642724514008, -0.6346856951713562, 0.22280853986740112, -0.07579337060451508, 0.1251184344291687, -0.025326065474133224, -0.4266330254224815, 0.873412061355841,0.2334397852531261,-0.5106201171875,0.167633056640625,-0.5095672607421875
20230215-1536,2023-02-15 15:36:50Z,u02, 855,100,movements,misc1, lt, nd,281465.69450325, -0.8582057935171412, -0.24465183031441914, 0.41018164080769487, 0.1465076208114624, -0.0958622470498085, -0.06456443667411804, -0.7341384291648865, 0.24221853911876678, -0.634327232837677, 0.23520654439926147, -0.10936024785041809, 0.1452983021736145, -0.024534142725062012, -0.4268892818551356, 0.8732901879656003,0.2335121704111559,-0.498931884765625,0.1328582763671875,-0.4890289306640625
20230215-1536,2023-02-15 15:36:50Z,u02, 856,100,movements,misc1, lt, nd,281465.70452625, -0.8590543441359914, -0.24297307352159433, 0.41096317171045443, 0.1762319952249527, -0.11306919902563095, -0.08043794333934784, -0.7349832653999329, 0.2405894249677658, -0.6339687705039978, 0.22941386699676514, -0.12190656363964081, 0.16311299800872803, -0.023517901746654565, -0.42715633278566945, 0.8731793209936355,0.23354299652161625,-0.5055694580078125,0.118682861328125,-0.470855712890625
20230215-1536,2023-02-15 15:36:50Z,u02, 857,100,movements,misc1, lt, nd,281465.71454925, -0.8601619320522184, -0.24108695802044872, 0.41170192289096935, 0.16420409083366394, -0.16312970221042633, -0.10770925134420395, -0.7360275983810425, 0.23875829577445984, -0.6334491968154907, 0.23834693431854248, -0.12118932604789734, 0.20299875736236572, -0.022387953880446197, -0.42752098636169106, 0.8730373411395973,0.23351748371692144,-0.4976806640625,0.1175689697265625,-0.430450439453125
20230215-1536,2023-02-15 15:36:50Z,u02, 858,100,movements,misc1, lt, nd,281465.72457225004, -0.8619095462937197, -0.23917183533413777, 0.4122061637964172, 0.1548355519771576, -0.20585612952709198, -0.10296861082315445, -0.7374792695045471, 0.23689812421798706, -0.6324584484100342, 0.23819643259048462, -0.10259026288986206, 0.23014521598815918, -0.021220647465822393, -0.428159401165348, 0.8727878132168263,0.23338956435068162,-0.4992828369140625,0.134307861328125,-0.402313232421875
20230215-1536,2023-02-15 15:36:50Z,u02, 859,100,movements,misc1, lt, nd,281465.73459425004, -0.8639003841387358, -0.2373397227285922, 0.4128289462900353, 0.1631222367286682, -0.2212798297405243, -0.0808529183268547, -0.7390657067298889, 0.23511776328086853, -0.6312698125839233, 0.2736726403236389, -0.10972103476524353, 0.23962247371673584, -0.020036888091702943, -0.42890981605448, 0.8724632382986245,0.23332977701452332,-0.46539306640625,0.125396728515625,-0.3916473388671875
20230215-1536,2023-02-15 15:36:50Z,u02, 860,100,movements,misc1, lt, nd,281465.74461725, -0.8658232881073827, -0.23562019801959408, 0.4137304623103621, 0.17224018275737762, -0.2211511880159378, -0.05611902102828026, -0.7405850291252136, 0.23344609141349792, -0.6301085352897644, 0.3047329783439636, -0.11583134531974792, 0.2489287257194519, -0.018851621929027826, -0.42963978502246475, 0.872108911979207,0.23341036395365167,-0.43585205078125,0.11761474609375,-0.3811798095703125
20230215-1536,2023-02-15 15:36:50Z,u02, 861,100,movements,misc1, lt, nd,281465.75464025, -0.8678925014610676, -0.2340474763467678, 0.41486865787560134, 0.18922662734985352, -0.23267868161201477, -0.023015130311250687, -0.7421665191650391, 0.23191653192043304, -0.6288113594055176, 0.30311012268066406, -0.08726321160793304, 0.2511563301086426, -0.017663752421071856, -0.4304443354155691, 0.8716803835764395,0.23362166439492513,-0.439056396484375,0.1446533203125,-0.377655029296875
20230215-1536,2023-02-15 15:36:50Z,u02, 862,100,movements,misc1, lt, nd,281465.76466325, -0.8699273649822417, -0.23265936999541564, 0.4162071360490151, 0.1601310819387436, -0.246464803814888, -0.002221515169367194, -0.743689775466919, 0.23056605458259583, -0.6275067925453186, 0.3121865391731262, -0.08055689930915833, 0.2356458306312561, -0.016518681229105305, -0.4312467188437851, 0.8712170746566544,0.23395347770867442,-0.4315032958984375,0.1500091552734375,-0.3918609619140625
20230215-1536,2023-02-15 15:36:50Z,u02, 863,100,movements,misc1, lt, nd,281465.77468625, -0.8720411874479831, -0.23166624865552396, 0.41737162440260106, 0.12355788797140121, -0.23625583946704865, 0.01046818122267723, -0.7451894879341125, 0.22959958016872406, -0.626080334186554, 0.3246420621871948, -0.09060728549957275, 0.25791633129119873, -0.015577361504199739, -0.4321078305878891, 0.8707185196894627,0.2342847872657516,-0.4205474853515625,0.1389923095703125,-0.3681640625
20230215-1536,2023-02-15 15:36:50Z,u02, 864,100,movements,misc1, lt, nd,281465.78470825, -0.8740779198544717, -0.23074330448726307, 0.41836941156323604, 0.11013780534267426, -0.23423610627651215, 0.0023150199558585882, -0.7466253638267517, 0.22870118916034698, -0.6246970295906067, 0.3150305151939392, -0.08056886494159698, 0.2582572102546692, -0.014711820170911744, -0.43293769841992075, 0.87024854246801,0.23455489289768408,-0.4315948486328125,0.14813232421875,-0.3664398193359375
20230215-1536,2023-02-15 15:36:50Z,u02, 865,100,movements,misc1, lt, nd,281465.79473125003, -0.8760947001137919, -0.22975829073464757, 0.41918038490963533, 0.10324714332818985, -0.2178611159324646, -0.010741394013166428, -0.7480564117431641, 0.22774216532707214, -0.6233338713645935, 0.32052040100097656, -0.08118151128292084, 0.2671326994895935, -0.013861030244863817, -0.4337521569663222, 0.8698096156563908,0.2347299657634609,-0.4275360107421875,0.1465606689453125,-0.356201171875
20230215-1536,2023-02-15 15:36:50Z,u02, 866,100,movements,misc1, lt, nd,281465.80475425004, -0.8777904400139032, -0.22777212801735586, 0.4201035894878939, 0.1621350795030594, -0.21734634041786194, -0.036599915474653244, -0.7494588494300842, 0.22580775618553162, -0.6223521828651428, 0.32479149103164673, -0.12081202864646912, 0.2420269250869751, -0.0125779410217681, -0.43435664074337044, 0.869520821380091,0.2347543160714292,-0.4246673583984375,0.1049957275390625,-0.3803253173828125
20230215-1536,2023-02-15 15:36:50Z,u02, 867,100,movements,misc1, lt, nd,281465.81477725, -0.8793465510013794, -0.22552081392039985, 0.4213373441026159, 0.19532686471939087, -0.1957118809223175, -0.048695724457502365, -0.7508161664009094, 0.22361402213573456, -0.6215078234672546, 0.3111187815666199, -0.13717293739318848, 0.23651331663131714, -0.011125922097048215, -0.43488192338064424, 0.8692499505713664,0.234858696973435,-0.439697265625,0.0864410400390625,-0.3849945068359375
20230215-1536,2023-02-15 15:36:50Z,u02, 868,100,movements,misc1, lt, nd,281465.82480025, -0.8811796633588663, -0.22366365002757263, 0.4224590339340591, 0.17407695949077606, -0.22793292999267578, -0.05656589940190315, -0.7522732615470886, 0.22180350124835968, -0.6203936338424683, 0.3179470896720886, -0.15590079128742218, 0.26410090923309326, -0.009840932555687822, -0.43555292447622995, 0.8688936064711443,0.23499101827142915,-0.434326171875,0.0659027099609375,-0.356292724609375
20230215-1536,2023-02-15 15:36:50Z,u02, 869,100,movements,misc1, lt, nd,281465.83482225, -0.8832995919347559, -0.2221870682387214, 0.4233451487083601, 0.11734391003847122, -0.2524297535419464, -0.04059545695781708, -0.7538390159606934, 0.22036345303058624, -0.6190046072006226, 0.29773855209350586, -0.12615568935871124, 0.26992928981781006, -0.008742579376074382, -0.43637284797570614, 0.8684656910788868,0.23509505030204214,-0.4561004638671875,0.094207763671875,-0.3490753173828125
20230215-1536,2023-02-15 15:36:50Z,u02, 870,100,movements,misc1, lt, nd,281465.84484525, -0.8859342773965753, -0.2212800489358624, 0.42384772731666354, 0.057347554713487625, -0.30267348885536194, -0.02061612904071808, -0.7556217312812805, 0.21947863698005676, -0.6171424388885498, 0.3092564344406128, -0.10538870096206665, 0.2969978451728821, -0.007920273129747165, -0.4374540398921745, 0.8679157964110215,0.2351451368150788,-0.4463653564453125,0.1140899658203125,-0.3201446533203125
20230215-1536,2023-02-15 15:36:50Z,u02, 871,100,movements,misc1, lt, nd,281465.85486825, -0.8893225182254858, -0.22091263265304673, 0.42391612894704894, -0.01477351039648056, -0.3820250332355499, -0.016635501757264137, -0.7577710747718811, 0.21912017464637756, -0.6146295070648193, 0.2904096245765686, -0.08914579451084137, 0.32317137718200684, -0.007343933352853785, -0.4388978312116874, 0.8671999973111566,0.2351149120702073,-0.4673614501953125,0.129974365234375,-0.2914581298828125
20230215-1536,2023-02-15 15:36:50Z,u02, 872,100,movements,misc1, lt, nd,281465.86489125004, -0.8932956645798813, -0.2209040866872513, 0.42355045357802645, -0.04439963772892952, -0.38973620533943176, -0.022283773869276047, -0.7602084875106812, 0.219111829996109, -0.6116150617599487, 0.2682957053184509, -0.1021684855222702, 0.327450692653656, -0.006953603862858039, -0.4406178754831453, 0.8663700362970347,0.23496895283254682,-0.491912841796875,0.116943359375,-0.2841644287109375
20230215-1536,2023-02-15 15:36:50Z,u02, 873,100,movements,misc1, lt, nd,281465.87491425005, -0.8972747877859789, -0.22099804972102, 0.42293162471438117, -0.06892602145671844, -0.3758496940135956, -0.0313291996717453, -0.7626200318336487, 0.21920350193977356, -0.6085724234580994, 0.25964468717575073, -0.10724979639053345, 0.31484073400497437, -0.006664575648664954, -0.44234531202664124, 0.8655555050547361,0.23473334347328928,-0.5029754638671875,0.1119537353515625,-0.293731689453125
20230215-1536,2023-02-15 15:36:51Z,u02, 874,100,movements,misc1, lt, nd,281465.88493625, -0.9012019675647378, -0.22113410648098641, 0.421996072246653, -0.09677334874868393, -0.36281511187553406, -0.05008677765727043, -0.7649807333946228, 0.21933625638484955, -0.6055542826652527, 0.2618681788444519, -0.09395484626293182, 0.29590755701065063, -0.0064715538440040556, -0.44405065681074796, 0.864782187301225,0.2343688517887876,-0.50311279296875,0.1253814697265625,-0.3096466064453125
20230215-1536,2023-02-15 15:36:51Z,u02, 875,100,movements,misc1, lt, nd,281465.89495925, -0.9047999485796571, -0.22134054791121988, 0.4208262830689764, -0.10947182774543762, -0.30066439509391785, -0.054140906780958176, -0.7671189308166504, 0.2195376604795456, -0.6027699708938599, 0.27032333612442017, -0.09446138143539429, 0.26787006855010986, -0.006401825061286018, -0.4456164539202394, 0.8640995174502579,0.2339164478364583,-0.496795654296875,0.1250762939453125,-0.33489990234375
20230215-1536,2023-02-15 15:36:51Z,u02, 876,100,movements,misc1, lt, nd,281465.90498225, -0.9075887479537106, -0.22138635106640125, 0.41979269275368314, -0.05692252516746521, -0.20442387461662292, -0.056744519621133804, -0.7687890529632568, 0.21958234906196594, -0.6006221175193787, 0.2839105725288391, -0.08274154365062714, 0.24254417419433594, -0.006326801093390745, -0.4468208969220216, 0.8635937930467089,0.23348815882486423,-0.4848785400390625,0.1368408203125,-0.3580780029296875
20230215-1536,2023-02-15 15:36:51Z,u02, 877,100,movements,misc1, lt, nd,281465.91500525, -0.9090150180783338, -0.22103655946346698, 0.4194034764252207, 0.036497704684734344, -0.07527228444814682, -0.045491598546504974, -0.7697054743766785, 0.21924108266830444, -0.5995721817016602, 0.27698391675949097, -0.07138341665267944, 0.19141483306884766, -0.006092855525909607, -0.44741119356234826, 0.8633532974423718,0.23325356023959445,-0.4927215576171875,0.147857666015625,-0.4081573486328125
20230215-1536,2023-02-15 15:36:51Z,u02, 878,100,movements,misc1, lt, nd,281465.92502825, -0.909181236535434, -0.2203746785469524, 0.4197593499044571, 0.08742411434650421, 0.027046097442507744, -0.010136216878890991, -0.7699194550514221, 0.2185952514410019, -0.5995332598686218, 0.2563238739967346, -0.07015775144100189, 0.12411516904830933, -0.0057014713190850575, -0.44743810663358935, 0.8633366808725106,0.2332732436602221,-0.5135955810546875,0.1484375,-0.4754180908203125
20230215-1536,2023-02-15 15:36:51Z,u02, 879,100,movements,misc1, lt, nd,281465.93505025003, -0.9088629734475746, -0.2200525031004326, 0.4202454993615933, -0.034096188843250275, -0.07420568913221359, 0.023973017930984497, -0.769784152507782, 0.2182808667421341, -0.5998215675354004, 0.22573202848434448, -0.048847272992134094, 0.10668802261352539, -0.00548755196076441, -0.44727968105252475, 0.8633814038436957,0.2334167732585156,-0.5440521240234375,0.16943359375,-0.493133544921875
20230215-1536,2023-02-15 15:36:51Z,u02, 880,100,movements,misc1, lt, nd,281465.94507325004, -0.9081742290092609, -0.22040495708703625, 0.420488814338685, 0.006512014660984278, 0.10716409981250763, 0.04936644434928894, -0.7693101167678833, 0.2186248004436493, -0.6003041863441467, 0.1795274019241333, -0.041271910071372986, 0.116921067237854, -0.005669261480217384, -0.4470075624328957, 0.8634738537679839,0.23359144363390655,-0.58978271484375,0.1773529052734375,-0.4833831787109375
20230215-1536,2023-02-15 15:36:51Z,u02, 881,100,movements,misc1, lt, nd,281465.95509625, -0.906686134799008, -0.2208449419382265, 0.4214230668672617, 0.05517382547259331, 0.13150566816329956, 0.10952672362327576, -0.7683401107788086, 0.21905411779880524, -0.6013889908790588, 0.11178499460220337, -0.06552019715309143, 0.1286412477493286, -0.00582899289651517, -0.4463983950749871, 0.8636556801761051,0.23407973507660276,-0.65655517578125,0.153533935546875,-0.472747802734375
20230215-1536,2023-02-15 15:36:51Z,u02, 882,100,movements,misc1, lt, nd,281465.96511925, -0.9047178728563237, -0.22145225767209456, 0.4230817225528082, 0.10642482340335846, 0.17047809064388275, 0.1771576702594757, -0.7670502066612244, 0.2196466475725174, -0.6028177738189697, 0.09870004653930664, 0.05896356701850891, 0.0790141224861145, -0.0059583174532016805, -0.4455957789452967, 0.8638429771415104,0.2349130709140943,-0.6683502197265625,0.2786102294921875,-0.5238037109375
20230215-1536,2023-02-15 15:36:51Z,u02, 883,100,movements,misc1, lt, nd,281465.9751412917, -0.902745260948289, -0.22242524492208054, 0.42514151005765033, 0.08311284333467484, 0.12325891852378845, 0.21080830693244934, -0.7656914591789246, 0.22059576213359833, -0.604197084903717, 0.052037954330444336, 0.025406435132026672, 0.056986331939697266, -0.006162220256158707, -0.4448184941744706, 0.8639478388425964,0.23599299299104373,-0.713653564453125,0.246002197265625,-0.547210693359375
20230215-1536,2023-02-15 15:36:51Z,u02, 884,100,movements,misc1, lt, nd,281465.9851632917, -0.9013220910470258, -0.22377741793175343, 0.42704344681113887, 0.0295883622020483, 0.06567391753196716, 0.22418248653411865, -0.7645962238311768, 0.22191442549228668, -0.6051005125045776, -0.009390532970428467, 0.05265222489833832, 0.06495463848114014, -0.006505737472328603, -0.4443055491843652, 0.8639111261090547,0.23708197242728168,-0.77398681640625,0.274566650390625,-0.5401458740234375
20230215-1536,2023-02-15 15:36:51Z,u02, 885,100,movements,misc1, lt, nd,281465.9951862917, -0.9007794123751912, -0.2254526451334319, 0.4283501152163803, -0.032779138535261154, -0.0329703651368618, 0.1883472502231598, -0.763975203037262, 0.2235475778579712, -0.6052836179733276, -0.04945552349090576, 0.05632913112640381, 0.08598124980926514, -0.007020822461479042, -0.4441946743072699, 0.8637168743272857,0.23798075667602037,-0.8134307861328125,0.279876708984375,-0.5193023681640625
20230215-1536,2023-02-15 15:36:51Z,u02, 886,100,movements,misc1, lt, nd,281466.0052092917, -0.9014114751293931, -0.22702497648436637, 0.42910289586855327, -0.05242771655321121, -0.12294047325849533, 0.14512644708156586, -0.7640810608863831, 0.22507983446121216, -0.6045817732810974, -0.11494719982147217, 0.05014292895793915, 0.026212573051452637, -0.007473563963150643, -0.44458213121330364, 0.8633363231764201,0.238623445632712,-0.8790283203125,0.2752227783203125,-0.578369140625
20230215-1536,2023-02-15 15:36:51Z,u02, 887,100,movements,misc1, lt, nd,281466.01523229165, -0.9029286752666158, -0.22821623918024758, 0.429387769905891, -0.05164581164717674, -0.1934971958398819, 0.07394707202911377, -0.7647864818572998, 0.2262403666973114, -0.6032553911209106, -0.13925105333328247, 0.022126972675323486, -0.01666349172592163, -0.0077556942859458786, -0.44532254380821873, 0.8628504972087782,0.23899122941062104,-0.9040374755859375,0.2483673095703125,-0.6199188232421875
20230215-1536,2023-02-15 15:36:51Z,u02, 888,100,movements,misc1, lt, nd,281466.02525529166, -0.9051652965404311, -0.22876663321831603, 0.42928904196992246, -0.034661196172237396, -0.24747547507286072, 0.0016582844546064734, -0.7660356760025024, 0.22677646577358246, -0.6014662384986877, -0.175400972366333, 0.018691658973693848, -0.04723060131072998, -0.007753588255509598, -0.44632583180148744, 0.8623105521160207,0.23906801433867494,-0.941436767578125,0.2454681396484375,-0.6486968994140625
20230215-1536,2023-02-15 15:36:51Z,u02, 889,100,movements,misc1, lt, nd,281466.03527729167, -0.9079310721399554, -0.22860832846449372, 0.4288775342271327, -0.010718846693634987, -0.2880796194076538, -0.07159276306629181, -0.7677246332168579, 0.22662228345870972, -0.5993674397468567, -0.18234854936599731, 0.023698166012763977, -0.05813378095626831, -0.007445184489876603, -0.44750514012051884, 0.8617571305997395,0.2388692090718449,-0.9500732421875,0.2503204345703125,-0.657501220703125
20230215-1536,2023-02-15 15:36:51Z,u02, 890,100,movements,misc1, lt, nd,281466.0453002917, -0.9110654565597116, -0.22773833867694473, 0.4282726687100574, 0.021135279908776283, -0.3065206706523895, -0.1300734132528305, -0.769754946231842, 0.2257748395204544, -0.5970787405967712, -0.17876183986663818, 0.0150546133518219, -0.07702404260635376, -0.0068226905783544565, -0.44879181045626704, 0.8612106912752787,0.23844384589380108,-0.948516845703125,0.2408294677734375,-0.674102783203125
20230215-1536,2023-02-15 15:36:51Z,u02, 891,100,movements,misc1, lt, nd,281466.0553232917, -0.9142869724349876, -0.22627644450358964, 0.42757930704972086, 0.049553606659173965, -0.3050602078437805, -0.1759151965379715, -0.7719350457191467, 0.2243504524230957, -0.5947966575622559, -0.155478835105896, 0.009307369589805603, -0.06677860021591187, -0.005950080073350565, -0.45007362837540127, 0.860709851170466,0.23785871027734612,-0.9274139404296875,0.2336578369140625,-0.6615753173828125
20230215-1536,2023-02-15 15:36:51Z,u02, 892,100,movements,misc1, lt, nd,281466.0653462917, -0.9173829214763614, -0.22436290860662517, 0.42696402373384706, 0.07992267608642578, -0.2811735272407532, -0.19157162308692932, -0.774112343788147, 0.22248528897762299, -0.5926638841629028, -0.12815511226654053, 0.023257508873939514, -0.06059539318084717, -0.0048775923926687665, -0.4512696249719925, 0.8602688225886185,0.23721206877583503,-0.9022674560546875,0.2457427978515625,-0.65325927734375
20230215-1536,2023-02-15 15:36:51Z,u02, 893,100,movements,misc1, lt, nd,281466.0753692917, -0.9201242749930051, -0.2222445786625774, 0.42650106058002407, 0.09416180104017258, -0.24479979276657104, -0.1911202222108841, -0.7761073708534241, 0.22041955590248108, -0.5908237099647522, -0.10426372289657593, 0.019448623061180115, -0.04829072952270508, -0.003724327711588345, -0.45229889114842087, 0.8599066285860235,0.23658514990230936,-0.88037109375,0.2398681640625,-0.6391143798828125
20230215-1536,2023-02-15 15:36:51Z,u02, 894,100,movements,misc1, lt, nd,281466.0853912917, -0.9223414631200922, -0.22015055847799833, 0.42619995916071207, 0.1074032410979271, -0.18403391540050507, -0.17018583416938782, -0.77778160572052, 0.2183765470981598, -0.5893788933753967, -0.07594764232635498, 0.01381644606590271, -0.015555799007415771, -0.002608576950735815, -0.45310456219497636, 0.8596393019282358,0.23602905107322195,-0.853729248046875,0.2321929931640625,-0.6049346923828125
20230215-1536,2023-02-15 15:36:51Z,u02, 895,100,movements,misc1, lt, nd,281466.09541429166, -0.9238217140228825, -0.21824845757359046, 0.4260932789667827, 0.099985271692276, -0.1071452647447586, -0.1377916783094406, -0.7789831757545471, 0.21651996672153473, -0.5884762406349182, -0.038323283195495605, 0.02531658113002777, -0.0028780698776245117, -0.0016211479374784558, -0.453606919949073, 0.8594964270703318,0.235592990643942,-0.8173065185546875,0.2418365478515625,-0.5913543701171875
20230215-1536,2023-02-15 15:36:51Z,u02, 896,100,movements,misc1, lt, nd,281466.10543729167, -0.9245754105087606, -0.21671255101343695, 0.42616437712421223, 0.10216929763555527, -0.011051220819354057, -0.08688443899154663, -0.7796910405158997, 0.21502023935317993, -0.5880885124206543, 0.0005010366439819336, 0.03978627920150757, 0.013350963592529297, -0.0008405299573077257, -0.45382268389317965, 0.8594619169119071,0.23530713331935416,-0.7791900634765625,0.2548065185546875,-0.574737548828125
20230215-1536,2023-02-15 15:36:51Z,u02, 897,100,movements,misc1, lt, nd,281466.1154602917, -0.924421108472016, -0.21568128155835084, 0.4264962513948622, 0.07633236795663834, 0.06485632807016373, -0.030285879969596863, -0.7797768712043762, 0.2140129804611206, -0.5883420705795288, 0.040473341941833496, 0.0268012136220932, 0.019906461238861084, -0.0003296901833981271, -0.45368366075370586, 0.8595548610725793,0.2352368176356782,-0.7393035888671875,0.240814208984375,-0.5684356689453125
20230215-1536,2023-02-15 15:36:51Z,u02, 898,100,movements,misc1, lt, nd,281466.1254832917, -0.9234651830824152, -0.21517925436321922, 0.42697662474848547, 0.06056647747755051, 0.13383325934410095, 0.019961869344115257, -0.7792997360229492, 0.2135225534439087, -0.589151918888092, 0.0729857087135315, 0.02781045436859131, 0.05839020013809204, -0.00011236679887357062, -0.45323726031972394, 0.8597623387586597,0.23533958187763593,-0.7063140869140625,0.2413330078125,-0.53076171875
20230215-1536,2023-02-15 15:36:51Z,u02, 899,100,movements,misc1, lt, nd,281466.1355052917, -0.9218511631663991, -0.2150847991161216, 0.4276989144912522, 0.054775968194007874, 0.18308816850185394, 0.06280414015054703, -0.7783639430999756, 0.2134302705526352, -0.590421199798584, 0.08018279075622559, 0.022104397416114807, 0.06954717636108398, -9.728865566887776e-05, -0.4525366208338278, 0.8600517149691292,0.23563057430031156,-0.69818115234375,0.23553466796875,-0.5208740234375
20230215-1536,2023-02-15 15:36:51Z,u02, 900,100,movements,misc1, lt, nd,281466.1455282917, -0.9199079730890818, -0.21543993127552538, 0.42844023035291146, 0.017215581610798836, 0.18971091508865356, 0.08166550099849701, -0.777154803276062, 0.21377721428871155, -0.5918866395950317, 0.08094209432601929, 0.018339499831199646, 0.07070744037628174, -0.00031517089253078195, -0.4517262369275042, 0.8603702019350539,0.23602224687462617,-0.6962127685546875,0.23211669921875,-0.52117919921875
20230215-1536,2023-02-15 15:36:51Z,u02, 901,100,movements,misc1, lt, nd,281466.1555512917, -0.9179859943755538, -0.2160925660705889, 0.4289972569388226, -0.006928636226803064, 0.1812274158000946, 0.08626371622085571, -0.7759047746658325, 0.21441471576690674, -0.5932943224906921, 0.0689346194267273, 0.005403384566307068, 0.08259791135787964, -0.0007038871243511338, -0.4509460647889788, 0.8606767120760292,0.2363953143710013,-0.70697021484375,0.219818115234375,-0.5106964111328125
20230215-1536,2023-02-15 15:36:51Z,u02, 902,100,movements,misc1, lt, nd,281466.16557429166, -0.916377499956835, -0.21686491899401567, 0.42928250858202216, -0.03474470600485802, 0.15253397822380066, 0.06942912936210632, -0.7748178243637085, 0.2151690423488617, -0.5944406390190125, 0.05835670232772827, -0.012959569692611694, 0.07606899738311768, -0.0011701424194904796, -0.450309144977841, 0.8609326996625338,0.23667541810878612,-0.716461181640625,0.20220947265625,-0.51837158203125
20230215-1536,2023-02-15 15:36:51Z,u02, 903,100,movements,misc1, lt, nd,281466.1755972917, -0.9152244408725103, -0.2176061250511582, 0.4292706775232556, -0.04392169415950775, 0.09527788311243057, 0.03354143723845482, -0.7740052938461304, 0.21589282155036926, -0.5952362418174744, 0.03509843349456787, -0.023891478776931763, 0.08827823400497437, -0.0016359656336810934, -0.44986575851539756, 0.8611237129739979,0.2368209648363662,-0.7389068603515625,0.1920013427734375,-0.5069580078125
20230215-1536,2023-02-15 15:36:51Z,u02, 904,100,movements,misc1, lt, nd,281466.1856192917, -0.9146526203311915, -0.21817752592258183, 0.42896424972529656, -0.04863404110074043, 0.05049017071723938, -0.0006023135501891375, -0.7735669016838074, 0.21645072102546692, -0.595603346824646, -0.007484734058380127, -0.022145286202430725, 0.0772470235824585, -0.002024459735601109, -0.4496601113666454, 0.8612346128317399,0.23680513222114655,-0.7810516357421875,0.194305419921875,-0.5183563232421875
20230215-1536,2023-02-15 15:36:51Z,u02, 905,100,movements,misc1, lt, nd,281466.1956422917, -0.9144604639034917, -0.21851845639931095, 0.4285051920763478, -0.0333821177482605, 0.006325106602162123, -0.027791589498519897, -0.7733939290046692, 0.2167835533618927, -0.5957069396972656, -0.01234215497970581, -0.0156727135181427, 0.08421707153320312, -0.00230071794339319, -0.449601190393035, 0.8612999839998334,0.23667678976033313,-0.785736083984375,0.20111083984375,-0.5114898681640625
20230215-1536,2023-02-15 15:36:51Z,u02, 906,100,movements,misc1, lt, nd,281466.2056652917, -0.9148267149367474, -0.2186846692377737, 0.4280742817384519, -0.023177381604909897, -0.04420038312673569, -0.04293203353881836, -0.7735834121704102, 0.2169458121061325, -0.5954016447067261, -0.02809804677963257, -0.007106944918632507, 0.035022616386413574, -0.0024275360661255635, -0.44977027293953714, 0.8612527666629239,0.23652559454335936,-0.8016815185546875,0.2098388671875,-0.5603790283203125
20230215-1536,2023-02-15 15:36:51Z,u02, 907,100,movements,misc1, lt, nd,281466.2156882917, -0.9157538875947958, -0.21892423485500948, 0.42747913543919475, -0.036881741136312485, -0.08702268451452255, -0.05141367018222809, -0.7740939259529114, 0.21717965602874756, -0.5946524143218994, -0.027129769325256348, 0.0029436051845550537, 0.02171546220779419, -0.002557443299247204, -0.4501857827327009, 0.8610918935944343,0.23631940558932124,-0.8012237548828125,0.220123291015625,-0.57293701171875
20230215-1536,2023-02-15 15:36:51Z,u02, 908,100,movements,misc1, lt, nd,281466.22571129166, -0.9171185603232048, -0.2191606736886286, 0.426786630530121, -0.03927168250083923, -0.12423530220985413, -0.0634271651506424, -0.7748639583587646, 0.21741044521331787, -0.5935642719268799, -0.04412102699279785, 0.002590775489807129, 0.018079042434692383, -0.0026564749956146973, -0.45078908885272667, 0.8608440074996139,0.2360714067883041,-0.8189849853515625,0.220001220703125,-0.5754852294921875
