SessionID,LoggingTime,UID,RecNo,Hertz,Activity,MoveType,Wrist,Side,TimeStamp,DMRoll,DMPitch,DMYaw,DMRotX,DMRotY,DMRotZ,DMGrvX,DMGrvY,DMGrvZ,DMUAccelX,DMUAccelY,DMUAccelZ,DMQuatX,DMQuatY,DMQuatW,DMQuatZ,AccelroX,AceelroY,AceelroZ
20230421-1516,2023-04-21 15:16:47,u10, 1,100,movements,wr-su, lt, d,957777.055361625, -0.18928470183693408, -0.03902118521838352, -0.0037045894919428913, 0.027758263051509857, 0.023036256432533264, 0.0013794549740850925, -0.1880131959915161, 0.039011284708976746, -0.981391429901123, -0.000799134373664856, -0.0016577504575252533, 0.006522655487060547, -0.019597025092526196, -0.0944470133234575, 0.9953368730194341,0.0,-0.188812255859375,0.037353515625,-0.9748687744140625
20230421-1516,2023-04-21 15:16:47,u10, 2,100,movements,wr-su, lt, d,957777.0653836251, -0.18907727696674895, -0.038843198612925046, -0.003645450498618632, 0.011124692857265472, 0.016683286055922508, 0.0034769605845212936, -0.18781092762947083, 0.03883343189954758, -0.9814372062683105, 0.003271043300628662, -0.006545815616846085, 0.014228403568267822, -0.019505656040779102, -0.0943446857696341, 0.9953484004881451,1.899702711670795e-05,-0.184539794921875,0.03228759765625,-0.9672088623046875
20230421-1516,2023-04-21 15:16:47,u10, 3,100,movements,wr-su, lt, d,957777.075406625, -0.1889973174353506, -0.03882203752704354, -0.003639088312300212, -0.008978843688964844, 0.00046729756286367774, -0.00395195372402668, -0.18773260712623596, 0.03881228715181351, -0.9814530611038208, 0.007846653461456299, -0.024041756987571716, 0.0216141939163208, -0.019494825162418867, -0.0943049909154511, 0.9953523913886518,2.0384899238004833e-05,-0.1798858642578125,0.0147705078125,-0.9598388671875
20230421-1516,2023-04-21 15:16:47,u10, 4,100,movements,wr-su, lt, d,957777.0854286251, -0.18903554008182682, -0.038929479440328214, -0.003670386852217081, -0.010592719539999962, -0.006256917491555214, 0.0028585484251379967, -0.1877693235874176, 0.03891964629292488, -0.9814417362213135, 0.006677955389022827, -0.01952570676803589, 0.008922874927520752, -0.01954977185500706, -0.09432351249934236, 0.9953495494860122,1.0251963914963656e-05,-0.18109130859375,0.0193939208984375,-0.9725189208984375
20230421-1516,2023-04-21 15:16:47,u10, 5,100,movements,wr-su, lt, d,957777.0954516251, -0.1889745115098335, -0.03896262360549456, -0.003576392300569497, 0.010572295635938644, 0.018475593999028206, 0.01567293331027031, -0.18770919740200043, 0.038952767848968506, -0.9814519286155701, -0.0011184066534042358, -0.0008057765662670135, 0.0017919540405273438, -0.019561836056896424, -0.09429400111877338, 0.9953520819709323,5.799816697579373e-05,-0.1888275146484375,0.03814697265625,-0.9796600341796875
20230421-1516,2023-04-21 15:16:47,u10, 6,100,movements,wr-su, lt, d,957777.105474625, -0.18871459856039446, -0.03879734206066, -0.003344228336405483, 0.029453309252858162, 0.029723986983299255, 0.022563064470887184, -0.18745529651641846, 0.038787610828876495, -0.9815070033073425, -0.011397317051887512, 0.0038912445306777954, 0.0018165111541748047, -0.019468654278094574, -0.09416720239347931, 0.9953659500976365,0.00016321229149966494,-0.1988525390625,0.0426788330078125,-0.9796905517578125
20230421-1516,2023-04-21 15:16:48,u10, 7,100,movements,wr-su, lt, d,957777.1154966251, -0.1884210326404902, -0.03858664918786346, -0.0031045074487866245, 0.021306509152054787, 0.0242202989757061, 0.016020048409700394, -0.187168687582016, 0.03857707604765892, -0.9815700054168701, -0.005015850067138672, -0.0033750273287296295, 0.008425474166870117, -0.01935254859434151, -0.09402378282688253, 0.9953817826841022,0.0002697498114576011,-0.1921844482421875,0.0352020263671875,-0.97314453125
20230421-1516,2023-04-21 15:16:48,u10, 8,100,movements,wr-su, lt, d,957777.125519625, -0.18826144195297131, -0.03846724571990688, -0.0029591650702908757, 0.004926204681396484, 0.006829323247075081, 0.0044177221134305, -0.18701289594173431, 0.038457758724689484, -0.9816043972969055, 0.008759647607803345, -0.01045786589384079, 0.013144373893737793, -0.019286316304209235, -0.09394595556798911, 0.9953904215541641,0.00033492947650196774,-0.178253173828125,0.0279998779296875,-0.9684600830078125
20230421-1516,2023-04-21 15:16:48,u10, 9,100,movements,wr-su, lt, d,957777.1355416251, -0.18828759259144048, -0.03854159696965643, -0.0029709708491886502, -0.01721782796084881, -0.011135563254356384, -0.0004634787328541279, -0.18703801929950714, 0.03853205591440201, -0.9815967082977295, 0.017711162567138672, -0.025134820491075516, 0.013991117477416992, -0.019323871108322482, -0.09395873716846702, 0.995388458613737,0.0003328011862198323,-0.1693267822265625,0.013397216796875,-0.9676055908203125
20230421-1516,2023-04-21 15:16:48,u10, 10,100,movements,wr-su, lt, d,957777.145564625, -0.1883825303649124, -0.03874527096387248, -0.003002414872371533, -0.022381165996193886, -0.004844110459089279, 0.0001900605857372284, -0.18712973594665527, 0.03873557597398758, -0.9815711975097656, 0.013866111636161804, -0.028542686253786087, 0.013645172119140625, -0.019426700034792056, -0.09400534846438807, 0.9953820310240227,0.0003276482557990428,-0.1732635498046875,0.01019287109375,-0.967926025390625
20230421-1516,2023-04-21 15:16:48,u10, 11,100,movements,wr-su, lt, d,957777.1555866251, -0.18836266969740986, -0.03898437179033555, -0.0030746022118726874, -0.024414755403995514, 0.00741122430190444, -0.0042638094164431095, -0.18710850179195404, 0.038974497467279434, -0.9815657734870911, 0.0028585493564605713, -0.021060660481452942, 0.01365506649017334, -0.019549093049355107, -0.09399435889892464, 0.9953807070693698,0.00030277240977886425,-0.1842498779296875,0.017913818359375,-0.9679107666015625
20230421-1516,2023-04-21 15:16:48,u10, 12,100,movements,wr-su, lt, d,957777.165609625, -0.188284379825886, -0.039198319523351205, -0.003141170257338284, -0.018768055364489555, 0.008937747217714787, -0.005086460616439581, -0.18703009188175201, 0.03918828070163727, -0.9815722107887268, 0.0032836943864822388, -0.007144808769226074, 0.007008671760559082, -0.019658710867192952, -0.09395437731193189, 0.9953823613957355,0.00027893386020469424,-0.183746337890625,0.03204345703125,-0.9745635986328125
20230421-1516,2023-04-21 15:16:48,u10, 13,100,movements,wr-su, lt, d,957777.1756316251, -0.18826289933915594, -0.039275549159410846, -0.0032466951137784953, -0.0025029308162629604, -0.005794859025627375, -0.010653452016413212, -0.18700844049453735, 0.039265453815460205, -0.9815732836723328, 0.010418400168418884, -0.006565850228071213, -0.00019246339797973633, -0.019702106883883828, -0.09394251592519909, 0.9953826328907202,0.00022983391177709483,-0.1765899658203125,0.0326995849609375,-0.9817657470703125
20230421-1516,2023-04-21 15:16:48,u10, 14,100,movements,wr-su, lt, d,957777.1856546251, -0.18838987889494446, -0.03918232019730098, -0.0033807992094974414, 0.015851309522986412, -0.01748267374932766, -0.020278647541999817, -0.1871337592601776, 0.03917229548096657, -0.9815530776977539, 0.017104998230934143, 2.7552247047424316e-05, -0.00025838613510131836, -0.01966199685131763, -0.09400455581196157, 0.9953775791727191,0.000159957715749795,-0.1700286865234375,0.0391998291015625,-0.9818115234375
20230421-1516,2023-04-21 15:16:48,u10, 15,100,movements,wr-su, lt, d,957777.195677625, -0.18852425201842843, -0.03879667700118159, -0.0034175273290404633, 0.06191747263073921, -0.00432506063953042, 0.0021488689817488194, -0.1872684806585312, 0.03878694400191307, -0.981542706489563, 0.010541096329689026, 0.009873349219560623, 0.0012418031692504883, -0.01947178673251344, -0.09407175875456564, 0.9953749036256796,0.00012484815716764727,-0.176727294921875,0.0486602783203125,-0.9803009033203125
20230421-1516,2023-04-21 15:16:48,u10, 16,100,movements,wr-su, lt, d,957777.2056996251, -0.18834993357046148, -0.0380898160288071, -0.003101502519235792, 0.08159609884023666, 0.04035266116261482, 0.02433406561613083, -0.18710245192050934, 0.0380806066095829, -0.9816020131111145, -0.007004678249359131, -0.0020851008594036102, 0.0026439428329467773, -0.019105147886517352, -0.09398925917340788, 0.9953898123005116,0.00024719433879787133,-0.1941070556640625,0.0359954833984375,-0.9789581298828125
20230421-1516,2023-04-21 15:16:48,u10, 17,100,movements,wr-su, lt, d,957777.215722625, -0.17277326356603862, -0.013832707897593461, -0.0023696857646617804, 0.05506553500890732, 0.05096988379955292, 0.016881316900253296, -0.17189852893352509, 0.013832266442477703, -0.9850175380706787, -0.03177584707736969, 0.009361113421618938, 0.017778217792510986, -0.006992728246799631, -0.08626894196703126, 0.9962471265203792,-0.0005836635673715689,-0.20367431640625,0.023193359375,-0.9672393798828125
20230421-1516,2023-04-21 15:16:48,u10, 18,100,movements,wr-su, lt, d,957777.2257446251, -0.174688417689584, -0.011580938042920428, -0.002150244461271377, 0.042360659688711166, 0.013423576019704342, 0.01672658696770668, -0.17378965020179749, 0.011580679565668106, -0.984714686870575, -0.014320775866508484, 0.0014503495767712593, 0.024341821670532227, -0.005862144290500797, -0.08722547574064062, 0.996171216087695,-0.0005658876432372837,-0.1881103515625,0.013031005859375,-0.9603729248046875
20230421-1516,2023-04-21 15:16:48,u10, 19,100,movements,wr-su, lt, d,957777.235767625, -0.17914392231358994, -0.01346684581233832, -0.0020216329943804046, 0.012119954451918602, 0.007866890169680119, 0.00962673220783472, -0.1781710982322693, 0.013466439209878445, -0.9839073419570923, 0.011636599898338318, 0.0035013575106859207, 0.01559990644454956, -0.006796793557174546, -0.08944338918237163, 0.9959685530722902,-0.0004044263232340099,-0.166534423828125,0.0169677734375,-0.9683074951171875
20230421-1516,2023-04-21 15:16:48,u10, 20,100,movements,wr-su, lt, d,957777.2457896251, -0.18083564432145782, -0.01816438298950832, -0.001995172089969988, -0.008136315271258354, 0.01608380861580372, 0.004457802511751652, -0.17982198297977448, 0.01816338486969471, -0.9835314750671387, 0.004391595721244812, 0.012918788939714432, 0.005000591278076172, -0.009135036631367176, -0.09028188930853397, 0.9958742394557003,-0.00017340788700249987,-0.1754302978515625,0.0310821533203125,-0.9785308837890625
20230421-1516,2023-04-21 15:16:48,u10, 21,100,movements,wr-su, lt, d,957777.255812625, -0.1800871361503492, -0.02121747978340507, -0.001979210618592099, -0.02249269373714924, 0.015880608931183815, 0.005407166667282581, -0.1790749877691269, 0.021215887740254402, -0.9836066365242004, -0.005129173398017883, -0.00272221677005291, 0.0006202459335327148, -0.010654541457829196, -0.08990638657496258, 0.9958931645107829,-3.1600375156877686e-05,-0.1842041015625,0.01849365234375,-0.9829864501953125
20230421-1516,2023-04-21 15:16:48,u10, 22,100,movements,wr-su, lt, d,957777.265835625, -0.17851152456976285, -0.024524737213637043, -0.0019397270082962066, -0.03272748738527298, 0.014867009595036507, 0.005258029326796532, -0.1775115579366684, 0.02452227845788002, -0.9838131666183472, 0.003317132592201233, -0.009568644687533379, -0.004391789436340332, -0.012299688800200537, -0.0891187083056829, 0.9959450787732402,0.00012707642091999032,-0.1741943359375,0.01495361328125,-0.9882049560546875
20230421-1516,2023-04-21 15:16:48,u10, 23,100,movements,wr-su, lt, d,957777.2758576251, -0.17837765822305027, -0.028315873406796217, -0.0020184383858444965, -0.03294910117983818, 0.009835765697062016, -0.006463927216827869, -0.1773620843887329, 0.028312088921666145, -0.983738362789154, 0.007943674921989441, -0.003196103498339653, -0.0013690590858459473, -0.014191068021486324, -0.08904742979311105, 0.9959262388941332,0.0002559066913827568,-0.1694183349609375,0.025115966796875,-0.985107421875
20230421-1516,2023-04-21 15:16:48,u10, 24,100,movements,wr-su, lt, d,957777.285880625, -0.18056301457390275, -0.029576657227458544, -0.002220208996191152, -0.030267830938100815, 0.0018356295768171549, -0.013166570104658604, -0.17950491607189178, 0.029572345316410065, -0.9833124876022339, 0.01496933400630951, -0.0017250385135412216, -0.0008640885353088379, -0.014827631340476091, -0.09013265545288277, 0.9958193013858174,0.0002277880259138334,-0.1645355224609375,0.0278472900390625,-0.9841766357421875
20230421-1516,2023-04-21 15:16:48,u10, 25,100,movements,wr-su, lt, d,957777.2959026251, -0.18374325860403803, -0.029069658050969723, -0.002593218831152887, -0.024301208555698395, -0.012837056070566177, -0.03687791898846626, -0.1826338917016983, 0.029065564274787903, -0.9827512502670288, 0.025239408016204834, 0.0025506671518087387, -0.008444368839263916, -0.014591953339454256, -0.09171391941827647, 0.9956783879773053,4.2408350396286494e-05,-0.1573944091796875,0.0316162109375,-0.9911956787109375
20230421-1516,2023-04-21 15:16:48,u10, 26,100,movements,wr-su, lt, d,957777.305925625, -0.184972253802337, -0.02753105702056372, -0.0031014193124891927, -0.014770553447306156, -0.024415148422122, -0.04421732574701309, -0.18384955823421478, 0.02752758003771305, -0.9825688600540161, 0.023937374353408813, 0.004363309592008591, -0.011342883110046387, -0.013849450500642449, -0.09232422650053419, 0.9956325505970383,-0.00027267059103792545,-0.159912109375,0.031890869140625,-0.9939117431640625
20230421-1516,2023-04-21 15:16:48,u10, 27,100,movements,wr-su, lt, d,957777.3159476251, -0.18389218379369515, -0.02662029338867875, -0.0032340247143229856, -0.006809432990849018, -0.018373234197497368, 0.010798497125506401, -0.18279272317886353, 0.026617148891091347, -0.9827911257743835, 0.014427155256271362, -0.002279359847307205, -0.008160412311553955, -0.013401971587759414, -0.09178691676746871, 0.9956883199188751,-0.0003879838449334103,-0.168365478515625,0.0243377685546875,-0.9909515380859375
20230421-1516,2023-04-21 15:16:48,u10, 28,100,movements,wr-su, lt, d,957777.325970625, -0.18334349510951373, -0.027361111771045478, -0.003066310960252076, -0.039130620658397675, 0.016952797770500183, 0.01754162088036537, -0.18224979937076569, 0.02735769748687744, -0.9828715920448303, -0.003037750720977783, -0.02412281557917595, -0.013267874717712402, -0.01376300914468215, -0.09151384855428066, 0.9957086092790113,-0.00027425021112114614,-0.1852874755859375,0.00323486328125,-0.9961395263671875
20230421-1516,2023-04-21 15:16:48,u10, 29,100,movements,wr-su, lt, d,957777.3359936251, -0.1832526525661151, -0.026937289944727588, -0.0030628544404032974, -0.014995286241173744, 0.023808838799595833, -0.0008725142106413841, -0.18216261267662048, 0.026934033259749413, -0.9828994274139404, -0.015057310461997986, -0.04246746003627777, -0.006312549114227295, -0.01355183644365834, -0.09146923067492821, 0.9957156175753327,-0.00029254657262901026,-0.1972198486328125,-0.015533447265625,-0.9892120361328125
20230421-1516,2023-04-21 15:16:48,u10, 30,100,movements,wr-su, lt, d,957777.346015625, -0.18248726363278392, -0.02621274186787655, -0.0031903094684273686, -0.023830588907003403, 0.0068929726257920265, -0.022219080477952957, -0.18141375482082367, 0.026209739968180656, -0.9830574989318848, 0.0065174400806427, 0.008229365572333336, -0.010030210018157959, -0.013196794263390313, -0.09108831946703771, 0.9957552678287008,-0.0003942035154397823,-0.174896240234375,0.0344390869140625,-0.9930877685546875
20230421-1516,2023-04-21 15:16:48,u10, 31,100,movements,wr-su, lt, d,957777.356038625, -0.18168518112076237, -0.026427261990773127, -0.003627258490655506, -0.05029107630252838, -0.006587948650121689, -0.04983323812484741, -0.18062418699264526, 0.026424186304211617, -0.9831971526145935, 0.0204678475856781, 0.039478544145822525, -0.003909111022949219, -0.013323255868886313, -0.09068576419641824, 0.9957902408763722,-0.0006073190137953299,-0.16015625,0.0659027099609375,-0.9871063232421875
20230421-1516,2023-04-21 15:16:48,u10, 32,100,movements,wr-su, lt, d,957777.3660606251, -0.1810436893827376, -0.027293505851801965, -0.0039102673877817054, -0.08856841921806335, -0.0613396130502224, 0.010764595121145248, -0.17998924851417542, 0.027290116995573044, -0.9832899570465088, 0.019604027271270752, -0.003974666818976402, 0.003645181655883789, -0.013767154733818395, -0.09036310478188697, 0.9958135080569241,-0.0007133440979662964,-0.1603851318359375,0.0233154296875,-0.979644775390625
20230421-1516,2023-04-21 15:16:48,u10, 33,100,movements,wr-su, lt, d,957777.376083625, -0.18074846416356802, -0.028228976495128254, -0.004296565692887243, -0.1088813990354538, -0.06336254626512527, -0.05581648275256157, -0.1796942800283432, 0.028225228190422058, -0.983317494392395, 0.02072814106941223, -0.08941295742988586, -0.009785473346710205, -0.014250254486956363, -0.09021186811037869, 0.9958202325719676,-0.0008654958325494191,-0.158966064453125,-0.061187744140625,-0.99310302734375
20230421-1516,2023-04-21 15:16:48,u10, 34,100,movements,wr-su, lt, d,957777.3861046251, -0.18085577430072083, -0.029362006899641215, -0.005123375916526397, -0.08735772967338562, -0.09313828498125076, -0.0715821236371994, -0.17979392409324646, 0.02935778722167015, -0.9832661151885986, 0.01054336130619049, -0.019363263621926308, 0.017537415027618408, -0.01485175491784378, -0.09025722277329183, 0.9958069044816955,-0.001225231946939192,-0.16925048828125,0.0099945068359375,-0.965728759765625
20230421-1516,2023-04-21 15:16:48,u10, 35,100,movements,wr-su, lt, d,957777.396127625, -0.18146928484243696, -0.029710405927140394, -0.006001360426290876, -0.062481120228767395, -0.08756615966558456, -0.08675471693277359, -0.18039527535438538, 0.029706034809350967, -0.983145534992218, 0.030813291668891907, 0.043505653738975525, 0.030997097492218018, -0.015065347253493221, -0.09055540382001727, 0.9957760410784176,-0.0016420251862724782,-0.1495819091796875,0.073211669921875,-0.9521484375
20230421-1516,2023-04-21 15:16:48,u10, 36,100,movements,wr-su, lt, d,957777.4061496251, -0.18245020327290895, -0.029577753351046128, -0.007080610638701495, -0.07802199572324753, -0.09295240044593811, -0.09794558584690094, -0.18136028945446014, 0.029573440551757812, -0.9829719662666321, 0.02176852524280548, 0.01490594819188118, 0.02092057466506958, -0.015049235334987483, -0.09103595904039108, 0.9957314551286689,-0.0021780025865554393,-0.1595916748046875,0.0444793701171875,-0.9620513916015625
20230421-1516,2023-04-21 15:16:48,u10, 37,100,movements,wr-su, lt, d,957777.416172625, -0.1838997256454829, -0.028981075751570644, -0.00808827519281926, -0.06789091229438782, -0.12571939826011658, -0.08253691345453262, -0.18278813362121582, 0.02897701971232891, -0.982725203037262, 0.016223102807998657, 0.00924626737833023, 1.341104507446289e-05, -0.014799995756814054, -0.09175160982034646, 0.9956682388345054,-0.002696150943842979,-0.16656494140625,0.0382232666015625,-0.9827117919921875
20230421-1516,2023-04-21 15:16:48,u10, 38,100,movements,wr-su, lt, d,957777.4261956251, -0.185162498096953, -0.02971381444947106, -0.009166118054461098, -0.09012457728385925, -0.16487719118595123, -0.10802682489156723, -0.18402498960494995, 0.02970944158732891, -0.9824724793434143, 0.029544919729232788, 0.0034631844609975815, -0.0008801817893981934, -0.01521623290918428, -0.09237007950766371, 0.9956033663417885,-0.0031894701002057393,-0.15447998046875,0.033172607421875,-0.9833526611328125
20230421-1516,2023-04-21 15:16:48,u10, 39,100,movements,wr-su, lt, d,957777.436217625, -0.18643788990271645, -0.03127433397039279, -0.010494049997053468, -0.09481926262378693, -0.18376405537128448, -0.12482888996601105, -0.1852690577507019, 0.03126923739910126, -0.9821901917457581, 0.01762065291404724, 0.014369823038578033, 0.005169987678527832, -0.016056778348109303, -0.09298964814011443, 0.9955304294027315,-0.0037680905124426655,-0.1676483154296875,0.0456390380859375,-0.977020263671875
20230421-1516,2023-04-21 15:16:48,u10, 40,100,movements,wr-su, lt, d,957777.4462406251, -0.18776071039349698, -0.03179947272819846, -0.01183623218448942, -0.09312894940376282, -0.174738347530365, -0.1146785244345665, -0.18656505644321442, 0.03179411217570305, -0.9819279909133911, -0.009525716304779053, -0.003839995712041855, 0.02094477415084839, -0.016383484321477983, -0.09363535211329332, 0.9954619458719492,-0.004400884138770645,-0.1960906982421875,0.0279541015625,-0.9609832763671875
20230421-1516,2023-04-21 15:16:48,u10, 41,100,movements,wr-su, lt, d,957777.456262625, -0.18882861324539144, -0.030357465772246735, -0.013130235868885173, -0.08405805379152298, -0.15436649322509766, -0.11779258400201797, -0.18762196600437164, 0.030352802947163582, -0.981772243976593, -0.033630549907684326, 1.2205913662910461e-05, 0.03211098909378052, -0.0157290712551626, -0.0941620137522126, 0.9954194639430876,-0.0051042034510984016,-0.22125244140625,0.030364990234375,-0.9496612548828125
20230421-1516,2023-04-21 15:16:48,u10, 42,100,movements,wr-su, lt, d,957777.466285625, -0.19008031270726217, -0.03042786062141438, -0.014540967702651647, -0.07834717631340027, -0.14989158511161804, -0.1400185227394104, -0.1888502985239029, 0.03042316623032093, -0.981534481048584, -0.044655025005340576, 0.006472606211900711, 0.04046398401260376, -0.015834149315892998, -0.09477354819501002, 0.9953560335229772,-0.005793106795121678,-0.2335052490234375,0.036895751953125,-0.941070556640625
20230421-1516,2023-04-21 15:16:48,u10, 43,100,movements,wr-su, lt, d,957777.4763076251, -0.19082477387661806, -0.03207086368701849, -0.016240898601489993, -0.11307288706302643, -0.13344363868236542, -0.1719481647014618, -0.18957123160362244, 0.032065365463495255, -0.9813432693481445, -0.04848121106624603, -0.002325966954231262, 0.04767322540283203, -0.016734795989540707, -0.0951226843280933, 0.995303290628136,-0.006554844240228371,-0.2380523681640625,0.0297393798828125,-0.9336700439453125
20230421-1516,2023-04-21 15:16:48,u10, 44,100,movements,wr-su, lt, d,957777.486330625, -0.19161064521471668, -0.03331376596149642, -0.01820550412791945, -0.14770036935806274, -0.11915497481822968, -0.1783541440963745, -0.19033464789390564, 0.03330760449171066, -0.9811540842056274, -0.05134938657283783, -0.01591256633400917, 0.06719839572906494, -0.017449671203209685, -0.09549068488273185, 0.995249280785194,-0.007466388492882072,-0.2416839599609375,0.01739501953125,-0.9139556884765625
20230421-1516,2023-04-21 15:16:48,u10, 45,100,movements,wr-su, lt, d,957777.4963536251, -0.19251743533219537, -0.034612368768748056, -0.020323247416365833, -0.17115549743175507, -0.13092029094696045, -0.1966037005186081, -0.19121582806110382, 0.03460545837879181, -0.9809377789497375, -0.04169441759586334, -0.04574435576796532, 0.08329379558563232, -0.018200793853475505, -0.09591575834861507, 0.9951870618615343,-0.00844976358098997,-0.23291015625,-0.011138916015625,-0.89764404296875
20230421-1516,2023-04-21 15:16:48,u10, 46,100,movements,wr-su, lt, d,957777.506375625, -0.19357167897274397, -0.03603897801679701, -0.022819308509222418, -0.2109425961971283, -0.17527656257152557, -0.2412198930978775, -0.1922401785850525, 0.036031175404787064, -0.9806862473487854, -0.02068103849887848, -0.05342618003487587, 0.0685463547706604, -0.019035386821541638, -0.09640821607858725, 0.9951133212148211,-0.009613064312834915,-0.212921142578125,-0.01739501953125,-0.912139892578125
20230421-1516,2023-04-21 15:16:48,u10, 47,100,movements,wr-su, lt, d,957777.5163986251, -0.19534689460802504, -0.037763294521643245, -0.025780888771410337, -0.2009771764278412, -0.21725624799728394, -0.2753813564777374, -0.19396845996379852, 0.03775431960821152, -0.9802809953689575, -0.00595228374004364, -0.037235505878925323, 0.03353416919708252, -0.020045769938731663, -0.0972505278686082, 0.9949973575775517,-0.010985321205153172,-0.199920654296875,0.000518798828125,-0.946746826171875
20230421-1516,2023-04-21 15:16:48,u10, 48,100,movements,wr-su, lt, d,957777.526420625, -0.1978881009590374, -0.03885381980180909, -0.028976328970988223, -0.1603919267654419, -0.24520878493785858, -0.29938310384750366, -0.19645071029663086, 0.038844045251607895, -0.9797439575195312, -0.0034852921962738037, -0.017847932875156403, 0.010536253452301025, -0.020759509736990044, -0.09847363089182004, 0.9948445798450065,-0.01249535874905377,-0.1999359130859375,0.02099609375,-0.969207763671875
20230421-1516,2023-04-21 15:16:48,u10, 49,100,movements,wr-su, lt, d,957777.5364436251, -0.20088493194862556, -0.039448884062131734, -0.03232928486037081, -0.10815918445587158, -0.2519356608390808, -0.32758665084838867, -0.19938130676746368, 0.039438653737306595, -0.9791280031204224, -0.008031487464904785, -0.0035804808139801025, 0.011110484600067139, -0.021241694086248156, -0.09992386030843817, 0.9946683807578137,-0.014101886557872503,-0.2074127197265625,0.035858154296875,-0.968017578125
20230421-1516,2023-04-21 15:16:48,u10, 50,100,movements,wr-su, lt, d,957777.546465625, -0.2040831603463849, -0.03938215885669153, -0.03581386086910245, -0.025635283440351486, -0.2547713816165924, -0.3479718267917633, -0.20251229405403137, 0.039371978491544724, -0.9784879088401794, -0.013063967227935791, -0.01019715890288353, 0.010653495788574219, -0.021407878113988622, -0.10147778665313302, 0.9944818120675233,-0.01580400641031094,-0.215576171875,0.0291748046875,-0.96783447265625
20230421-1516,2023-04-21 15:16:48,u10, 51,100,movements,wr-su, lt, d,957777.556488625, -0.2068136329648792, -0.03860747084946068, -0.039265385509311405, 0.038428522646427155, -0.2669593393802643, -0.35975411534309387, -0.20518946647644043, 0.03859788179397583, -0.9779608845710754, -0.0059006959199905396, -0.024544518440961838, 0.0055945515632629395, -0.021221759206804924, -0.10280659886778962, 0.9943203836672944,-0.01753085387869664,-0.211090087890625,0.0140533447265625,-0.9723663330078125
20230421-1516,2023-04-21 15:16:48,u10, 52,100,movements,wr-su, lt, d,957777.5665116251, -0.20973763821241395, -0.03713126384980077, -0.04279558195010993, 0.10002797842025757, -0.2916066348552704, -0.39154428243637085, -0.20805978775024414, 0.037122733891010284, -0.9774113893508911, 0.009176656603813171, -0.007307048887014389, 0.0032903552055358887, -0.02069764473842278, -0.10423968489150806, 0.9941488437110121,-0.019332114590617344,-0.198883056640625,0.029815673828125,-0.97412109375
20230421-1516,2023-04-21 15:16:48,u10, 53,100,movements,wr-su, lt, d,957777.576533625, -0.21295671691641532, -0.03511184475930024, -0.04654626999260553, 0.13863858580589294, -0.32569244503974915, -0.4228440523147583, -0.21122047305107117, 0.03510463237762451, -0.9768078327178955, 0.020302429795265198, 0.01476110890507698, -0.002608001232147217, -0.019923672398864688, -0.10582590817126634, 0.9939574757465544,-0.021270479420095263,-0.19091796875,0.04986572265625,-0.9794158935546875
20230421-1516,2023-04-21 15:16:48,u10, 54,100,movements,wr-su, lt, d,957777.5865566251, -0.21647030304924517, -0.03265658212938447, -0.05043962376019015, 0.16856026649475098, -0.34632235765457153, -0.43635293841362, -0.2146691232919693, 0.03265077620744705, -0.9761409163475037, 0.01519089937210083, 0.016406245529651642, 0.006856858730316162, -0.018950553489437943, -0.10756588597021018, 0.993744052985946,-0.02330302784149405,-0.1994781494140625,0.0490570068359375,-0.9692840576171875
20230421-1516,2023-04-21 15:16:48,u10, 55,100,movements,wr-su, lt, d,957777.596578625, -0.22004544224095643, -0.030065852125291413, -0.05442301574705924, 0.16021877527236938, -0.3387070298194885, -0.4512271285057068, -0.21817532181739807, 0.030061323195695877, -0.9754464626312256, -0.010203048586845398, 0.007978852838277817, 0.013074696063995361, -0.01792308077235352, -0.1093413154032983, 0.9935181575412019,-0.025390629886213843,-0.2283782958984375,0.0380401611328125,-0.962371826171875
20230421-1516,2023-04-21 15:16:48,u10, 56,100,movements,wr-su, lt, d,957777.6066016251, -0.22352135203810228, -0.02738440815079899, -0.058318139702677164, 0.19475652277469635, -0.3303084969520569, -0.42189881205558777, -0.22158163785934448, 0.027380986139178276, -0.9747573137283325, -0.03206528723239899, 0.02031800150871277, 0.021205127239227295, -0.016851865082141145, -0.11107361273807696, 0.9932902304568283,-0.02744396303427387,-0.2536468505859375,0.047698974609375,-0.95355224609375
20230421-1516,2023-04-21 15:16:48,u10, 57,100,movements,wr-su, lt, d,957777.616623625, -0.2268785991282724, -0.02433092704998045, -0.061881660088651126, 0.2395988404750824, -0.3207876980304718, -0.41138583421707153, -0.22487063705921173, 0.024328526109457016, -0.9740848541259766, -0.031034573912620544, 0.01241464912891388, 0.024225294589996338, -0.015582753895083661, -0.11275968557344543, 0.9930662135169505,-0.029358392966375258,-0.2559051513671875,0.0367431640625,-0.949859619140625
20230421-1516,2023-04-21 15:16:48,u10, 58,100,movements,wr-su, lt, d,957777.6266466251, -0.2301179800713261, -0.020976875977181165, -0.06530365288151004, 0.2572212517261505, -0.31547069549560547, -0.4028030037879944, -0.22804221510887146, 0.02097533829510212, -0.9734252691268921, -0.02462814748287201, -0.004511089995503426, 0.018499791622161865, -0.014161073663124853, -0.1143976450609133, 0.9928432386524394,-0.031224921058989958,-0.2526702880859375,0.0164642333984375,-0.954925537109375
20230421-1516,2023-04-21 15:16:48,u10, 59,100,movements,wr-su, lt, d,957777.6366696251, -0.23339645500337683, -0.01747238848176815, -0.06852196610481992, 0.27937638759613037, -0.33253276348114014, -0.38376063108444214, -0.2312479168176651, 0.017471499741077423, -0.9727379679679871, -0.009474799036979675, 0.0016477759927511215, 0.010808706283569336, -0.01265976741583266, -0.11606355043341636, 0.9926125874366641,-0.03300342556222835,-0.24072265625,0.0191192626953125,-0.9619293212890625
20230421-1516,2023-04-21 15:16:48,u10, 60,100,movements,wr-su, lt, d,957777.646691625, -0.23703766549177818, -0.013855023793949752, -0.07160797730213672, 0.2681468725204468, -0.38885676860809326, -0.3893847167491913, -0.23480162024497986, 0.01385458093136549, -0.9719445705413818, 0.020568162202835083, 0.02958720549941063, -0.0009710192680358887, -0.011106964973252519, -0.11791671122279726, 0.9923539352075179,-0.03472578308872809,-0.2142333984375,0.0434417724609375,-0.9729156494140625
20230421-1516,2023-04-21 15:16:48,u10, 61,100,movements,wr-su, lt, d,957777.6567146251, -0.2412656336375728, -0.01044454977611874, -0.07486226652821912, 0.2441462129354477, -0.44102808833122253, -0.3991444408893585, -0.23891876637935638, 0.010444359853863716, -0.9709833860397339, 0.035778433084487915, 0.07428771257400513, 0.0013483762741088867, -0.009684033776029355, -0.12006050403400827, 0.9920473211913733,-0.03652191751983276,-0.2031402587890625,0.0847320556640625,-0.969635009765625
20230421-1516,2023-04-21 15:16:48,u10, 62,100,movements,wr-su, lt, d,957777.666736625, -0.24586227738544827, -0.007196894453595419, -0.07808606006314595, 0.22744446992874146, -0.4694240391254425, -0.3800663352012634, -0.24338646233081818, 0.007196832448244095, -0.9699026942253113, 0.027749180793762207, 0.0881400927901268, 0.02224034070968628, -0.008354841683899635, -0.12238812346227315, 0.9917078259478588,-0.03829739019419489,-0.21563720703125,0.0953369140625,-0.947662353515625
20230421-1516,2023-04-21 15:16:48,u10, 63,100,movements,wr-su, lt, d,957777.6767596251, -0.2506806851667119, -0.004238111057859033, -0.0811336548692253, 0.19288809597492218, -0.4854067265987396, -0.3588207960128784, -0.2480611950159073, 0.0042380983941257, -0.9687350988388062, 0.005522668361663818, 0.0659523457288742, 0.05276525020599365, -0.0071706558821546945, -0.12482402040352018, 0.9913473993107225,-0.039972770133990324,-0.2425384521484375,0.0701904296875,-0.9159698486328125
20230421-1516,2023-04-21 15:16:48,u10, 64,100,movements,wr-su, lt, d,957777.686781625, -0.25554594904810907, -0.001684872193417457, -0.08407763727060322, 0.15511195361614227, -0.48297181725502014, -0.33639511466026306, -0.25277331471443176, 0.0016848713858053088, -0.9675240516662598, -0.018344908952713013, 0.04178743436932564, 0.07375580072402954, -0.006190073050536594, -0.12727785526077762, 0.9909759299029194,-0.041576578175797164,-0.2711181640625,0.0434722900390625,-0.893768310546875
20230421-1516,2023-04-21 15:16:48,u10, 65,100,movements,wr-su, lt, d,957777.6968046251, -0.26036363515679745, 0.000536058737809539, -0.08679090851062692, 0.1391124427318573, -0.4859550893306732, -0.29767194390296936, -0.25743192434310913, -0.0005360587383620441, -0.9662963151931763, -0.03889384865760803, 0.002504456788301468, 0.06764519214630127, -0.005366078074636392, -0.12970374794118625, 0.9906032001829337,-0.0430495152057301,-0.29632568359375,0.0019683837890625,-0.898651123046875
20230421-1516,2023-04-21 15:16:48,u10, 66,100,movements,wr-su, lt, d,957777.706827625, -0.26534155424426414, 0.0025360133676221534, -0.08915868804773018, 0.12056885659694672, -0.5111511945724487, -0.262058824300766, -0.2622380256652832, -0.0025360106956213713, -0.9649998545646667, -0.03823810815811157, -0.034756455570459366, 0.05089163780212402, -0.0046394706454450435, -0.1322064165473744, 0.9902189808986465,-0.04434048945713594,-0.30047607421875,-0.03729248046875,-0.9141082763671875
20230421-1516,2023-04-21 15:16:48,u10, 67,100,movements,wr-su, lt, d,957777.7168496251, -0.2705924388019656, 0.004198603796413216, -0.09130487065092133, 0.07711811363697052, -0.5436039566993713, -0.246309295296669, -0.267300009727478, -0.004198591690510511, -0.963604211807251, -0.019870460033416748, -0.014066164381802082, 0.031246423721313477, -0.004077675333699918, -0.1348379338870497, 0.989813894545214,-0.04550229491240368,-0.28717041015625,-0.0182647705078125,-0.9323577880859375
20230421-1516,2023-04-21 15:16:48,u10, 68,100,movements,wr-su, lt, d,957777.7268726251, -0.2762976097832142, 0.005251176922099764, -0.09357216366774404, 0.0026966058649122715, -0.5964626669883728, -0.2453460395336151, -0.2727918028831482, -0.005251152906566858, -0.9620587825775146, 0.002421259880065918, 0.025179145857691765, 0.04410529136657715, -0.003842805753294068, -0.13768026446946158, 0.9893683749578516,-0.04668444604275238,-0.2703704833984375,0.019927978515625,-0.9179534912109375
20230421-1516,2023-04-21 15:16:48,u10, 69,100,movements,wr-su, lt, d,957777.736894625, -0.28244151689910124, 0.005818911848973716, -0.09583272402925627, -0.009191402234137058, -0.6277667880058289, -0.2212284505367279, -0.27869653701782227, -0.00581887923181057, -0.9603615999221802, 0.0014137625694274902, 0.023488571867346764, 0.06825655698776245, -0.003864525655461616, -0.14072765778047236, 0.988884698922197,-0.04783004209017524,-0.27728271484375,0.017669677734375,-0.8921051025390625
20230421-1516,2023-04-21 15:16:48,u10, 70,100,movements,wr-su, lt, d,957777.7469176251, -0.28863193604010734, 0.006350437650244145, -0.09783376515804552, -0.0013105766847729683, -0.6010688543319702, -0.19236218929290771, -0.2846352756023407, -0.006350394804030657, -0.9586148262023926, -0.024965643882751465, -0.0006075985729694366, 0.060818254947662354, -0.0038937223579429475, -0.14379644840586392, 0.9883933255580443,-0.04884492455455259,-0.309600830078125,-0.0069580078125,-0.897796630859375
20230421-1516,2023-04-21 15:16:48,u10, 71,100,movements,wr-su, lt, d,957777.756939625, -0.29433098713731004, 0.006912016731504414, -0.09943430944497504, 0.021245865151286125, -0.5331004858016968, -0.14314371347427368, -0.29009273648262024, -0.006911961827427149, -0.9569735527038574, -0.06330087780952454, 0.020446522161364555, 0.0332828164100647, -0.0038728027187854373, -0.14662270212084877, 0.9879372287777652,-0.04966534327260893,-0.3533935546875,0.0135345458984375,-0.9236907958984375
20230421-1516,2023-04-21 15:16:48,u10, 72,100,movements,wr-su, lt, d,957777.7669626251, -0.29927822185579667, 0.0076227093896583, -0.10048791700911253, 0.04485665261745453, -0.4558216631412506, -0.10441922396421432, -0.29482200741767883, -0.007622635457664728, -0.9555217623710632, -0.07595133781433105, 0.052514009177684784, 0.002442598342895508, -0.0037232318793947706, -0.14908135403450884, 0.9875413244292992,-0.05022870347890853,-0.3707733154296875,0.044891357421875,-0.9530792236328125
20230421-1516,2023-04-21 15:16:48,u10, 73,100,movements,wr-su, lt, d,957777.776984625, -0.3036061349220255, 0.008246397271707517, -0.10135718677374272, 0.018376462161540985, -0.42034465074539185, -0.10200118273496628, -0.29895317554473877, -0.008246303535997868, -0.9542321562767029, -0.04562082886695862, 0.04796494543552399, -0.031882286071777344, -0.003589770650126082, -0.1512317457021532, 0.9871908972051271,-0.050696636328448126,-0.344573974609375,0.0397186279296875,-0.986114501953125
20230421-1516,2023-04-21 15:16:48,u10, 74,100,movements,wr-su, lt, d,957777.7870076251, -0.3080785089208985, 0.008531089214567944, -0.10249907246567756, -0.040042370557785034, -0.4829995036125183, -0.1357032209634781, -0.3032171428203583, -0.008530985563993454, -0.9528833031654358, 0.014017254114151001, 0.020005609840154648, -0.052502989768981934, -0.0036502533526089854, -0.15344388144577709, 0.9868194566595259,-0.05127368926505554,-0.2891998291015625,0.011474609375,-1.0053863525390625
20230421-1516,2023-04-21 15:16:48,u10, 75,100,movements,wr-su, lt, d,957777.797030625, -0.3132784917278265, 0.008385742278930216, -0.1043484050707959, -0.08761657029390335, -0.5475584864616394, -0.21107295155525208, -0.3081683814525604, -0.008385644294321537, -0.9512948989868164, 0.07077205181121826, 0.010704993270337582, -0.025679588317871094, -0.003999494848702725, -0.15600182274811014, 0.9863702286719113,-0.05216480489682649,-0.237396240234375,0.0023193359375,-0.9769744873046875
20230421-1516,2023-04-21 15:16:48,u10, 76,100,movements,wr-su, lt, d,957777.8070526251, -0.3185854058776373, 0.008669373553462081, -0.10678281160243362, 0.00025869114324450493, -0.5028517246246338, -0.2633201777935028, -0.31321167945861816, -0.008669264614582062, -0.9496437907218933, 0.07120722532272339, 0.033861540257930756, -0.04982215166091919, -0.004191141211444444, -0.15862078496131093, 0.9858867966447418,-0.05337650588778843,-0.24200439453125,0.0251922607421875,-0.9994659423828125
20230421-1516,2023-04-21 15:16:48,u10, 77,100,movements,wr-su, lt, d,957777.8170756251, -0.3230790658007434, 0.009861837689467573, -0.10920354609219336, 0.06124269962310791, -0.3963620662689209, -0.2705369293689728, -0.317472368478775, -0.009861677885055542, -0.9482162594795227, 0.027784228324890137, 0.0013320287689566612, -0.0965072512626648, -0.003918114952671363, -0.1608618402350694, 0.9854546322929689,-0.05465537031941907,-0.2896881103515625,-0.0085296630859375,-1.0447235107421875
20230421-1516,2023-04-21 15:16:48,u10, 78,100,movements,wr-su, lt, d,957777.827097625, -0.32657739379224643, 0.011377428937576588, -0.11155098160326345, 0.07720808684825897, -0.3092074692249298, -0.26977500319480896, -0.32078245282173157, -0.011377183720469475, -0.9470845460891724, 0.0012633204460144043, -0.02608313038945198, -0.11060887575149536, -0.0034579574010417968, -0.16262151707104416, 0.9850961266920234,-0.05592748330790963,-0.31951904296875,-0.0374603271484375,-1.0576934814453125
20230421-1516,2023-04-21 15:16:48,u10, 79,100,movements,wr-su, lt, d,957777.8371206251, -0.32933215765657164, 0.013237440229268762, -0.11392937518635379, 0.12597177922725677, -0.2488599717617035, -0.3035309314727783, -0.32338282465934753, -0.013237053528428078, -0.9461756348609924, 0.02456989884376526, -0.04158776253461838, -0.09119313955307007, -0.002814015147883567, -0.16402520037224988, 0.9847896238982715,-0.05724571416233572,-0.2988128662109375,-0.0548248291015625,-1.0373687744140625
20230421-1516,2023-04-21 15:16:48,u10, 80,100,movements,wr-su, lt, d,957777.847142625, -0.33159036436683803, 0.015597168949319251, -0.11651607879754901, 0.1393515020608902, -0.21381224691867828, -0.33309921622276306, -0.32550758123397827, -0.015596536919474602, -0.9454107880592346, 0.065116286277771, -0.058301765471696854, -0.0653008222579956, -0.0019304651752866707, -0.1651995193619875, 0.9845092052697408,-0.058709789566552706,-0.2603912353515625,-0.0738983154296875,-1.010711669921875
20230421-1516,2023-04-21 15:16:48,u10, 81,100,movements,wr-su, lt, d,957777.8571656251, -0.3338050663385778, 0.01782616163640735, -0.11936790259308482, 0.09658551216125488, -0.24270407855510712, -0.35214731097221375, -0.32758837938308716, -0.01782521791756153, -0.9446523785591125, 0.09350323677062988, -0.08698739111423492, -0.02885836362838745, -0.0011354823354635616, -0.16635061066792883, 0.9842207309606039,-0.06029538445930505,-0.2340850830078125,-0.1048126220703125,-0.9735107421875
20230421-1516,2023-04-21 15:16:48,u10, 82,100,movements,wr-su, lt, d,957777.867188625, -0.33622620133622505, 0.019862729142029693, -0.12257177638272766, 0.08658161014318466, -0.24021108448505402, -0.3831443786621094, -0.3298618793487549, -0.01986142247915268, -0.9438202381134033, 0.08671301603317261, -0.11592652648687363, 0.014529526233673096, -0.00047476458283043823, -0.16759967739545076, 0.9839009657191514,-0.062039695084361315,-0.2431488037109375,-0.1357879638671875,-0.929290771484375
20230421-1516,2023-04-21 15:16:48,u10, 83,100,movements,wr-su, lt, d,957777.8772106251, -0.33811663358376437, 0.022143928477687043, -0.12583617649804293, 0.12885503470897675, -0.13922002911567688, -0.3765760064125061, -0.3316296339035034, -0.022142119705677032, -0.943149745464325, 0.026270687580108643, -0.11537007987499237, 0.0048716068267822266, 0.0003136993368963076, -0.16859719447584579, 0.983615630179335,-0.06383558077984426,-0.30535888671875,-0.13751220703125,-0.9382781982421875
20230421-1516,2023-04-21 15:16:48,u10, 84,100,movements,wr-su, lt, d,957777.887233625, -0.3387684172672841, 0.02462675178803556, -0.12889779158210657, 0.13636648654937744, -0.004888053052127361, -0.36365699768066406, -0.3322249948978424, -0.024624262005090714, -0.9428786635398865, -0.04143229126930237, -0.06319005787372589, -0.00225067138671875, 0.0012554958660220801, -0.16899433643395761, 0.9834340899579981,-0.06554914265993675,-0.3736572265625,-0.0878143310546875,-0.94512939453125
20230421-1516,2023-04-21 15:16:48,u10, 85,100,movements,wr-su, lt, d,957777.8972556251, -0.33810879178055636, 0.02737111216284844, -0.13169611510553222, 0.20301847159862518, 0.11690443009138107, -0.3448808789253235, -0.3315792977809906, -0.027367694303393364, -0.9430302977561951, -0.07091706991195679, 0.004311677068471909, 0.0006017684936523438, 0.0023908873503052045, -0.168757603908816, 0.9833643417436992,-0.06715391602177018,-0.402496337890625,-0.0230560302734375,-0.9424285888671875
20230421-1516,2023-04-21 15:16:48,u10, 86,100,movements,wr-su, lt, d,957777.9072786251, -0.3364267855205161, 0.030745461046919356, -0.1340788875382143, 0.26493513584136963, 0.20269815623760223, -0.3244453966617584, -0.32996028661727905, -0.030740616843104362, -0.9434941411018372, -0.055995553731918335, 0.013803377747535706, -0.041857361793518066, 0.003907013727583843, -0.1680406623225357, 0.9833820989090863,-0.06860376046842652,-0.385955810546875,-0.016937255859375,-0.9853515625
20230421-1516,2023-04-21 15:16:48,u10, 87,100,movements,wr-su, lt, d,957777.917300625, -0.333977973390948, 0.03457966072099242, -0.13598123645712992, 0.3332051634788513, 0.2658478319644928, -0.28748655319213867, -0.32760781049728394, -0.034572768956422806, -0.9441810250282288, -0.01980435848236084, 0.0016137994825839996, -0.07435834407806396, 0.005718485777172312, -0.1669634038902485, 0.9834690905377006,-0.06985022202872562,-0.347412109375,-0.032958984375,-1.0185394287109375
20230421-1516,2023-04-21 15:16:48,u10, 88,100,movements,wr-su, lt, d,957777.9273236251, -0.3313547161527519, 0.03844845362231195, -0.1376747149181525, 0.26476752758026123, 0.24150733649730682, -0.2944587171077728, -0.3250839114189148, -0.03843897953629494, -0.9449036717414856, 0.01784813404083252, -0.014951508492231369, -0.051022231578826904, 0.007573287575247865, -0.16580357069797588, 0.9835710826084543,-0.07099137838771033,-0.3072357177734375,-0.0533905029296875,-0.9959259033203125
20230421-1516,2023-04-21 15:16:48,u10, 89,100,movements,wr-su, lt, d,957777.937346625, -0.3288986251600957, 0.04176249691671632, -0.13975268108479078, 0.24774599075317383, 0.24130120873451233, -0.3070114552974701, -0.3227192461490631, -0.041750356554985046, -0.9455734491348267, 0.025416940450668335, 0.02165454626083374, -0.030622780323028564, 0.009120174630805626, -0.16471213402493248, 0.9836480066204689,-0.07227237756466809,-0.29730224609375,-0.0200958251953125,-0.9761962890625
20230421-1516,2023-04-21 15:16:48,u10, 90,100,movements,wr-su, lt, d,957777.9473686251, -0.3261121484257022, 0.04525331084238275, -0.1416862585080691, 0.28377535939216614, 0.30025428533554077, -0.27904507517814636, -0.32003453373908997, -0.045237865298986435, -0.9463252425193787, 0.00404021143913269, 0.05584274232387543, -0.03931623697280884, 0.010780902231074039, -0.16346609127052752, 0.9837487734038257,-0.07349067969196199,-0.3159942626953125,0.0106048583984375,-0.9856414794921875
20230421-1516,2023-04-21 15:16:48,u10, 91,100,movements,wr-su, lt, d,957777.957391625, -0.32269965782272636, 0.048881052667675395, -0.14325944312482095, 0.302103191614151, 0.3644111454486847, -0.24364855885505676, -0.3167492151260376, -0.04886158928275108, -0.9472499489784241, -0.02338448166847229, 0.06999503076076508, -0.03695720434188843, 0.012564731364048384, -0.16191712834215283, 0.983905237887549,-0.07453374303255099,-0.3401336669921875,0.0211334228515625,-0.9842071533203125
20230421-1516,2023-04-21 15:16:48,u10, 92,100,movements,wr-su, lt, d,957777.9674136251, -0.3188074639585487, 0.0524442248278608, -0.144435222039299, 0.2868582010269165, 0.39058151841163635, -0.20543673634529114, -0.31300339102745056, -0.05242018774151802, -0.948304295539856, -0.030975550413131714, 0.06406265497207642, -0.013136744499206543, 0.014370060754138037, -0.16012921410061096, 0.9841097640515117,-0.07536648970942203,-0.3439788818359375,0.0116424560546875,-0.9614410400390625
20230421-1516,2023-04-21 15:16:48,u10, 93,100,movements,wr-su, lt, d,957777.977436625, -0.31482621355038903, 0.055519942916019055, -0.14541791496173545, 0.24632064998149872, 0.39437970519065857, -0.16888801753520966, -0.309174120426178, -0.05549142509698868, -0.9493851065635681, -0.016326427459716797, 0.04337596520781517, 0.005781650543212891, 0.015957092835957993, -0.1582808405659815, 0.9843309528889662,-0.07605880596296001,-0.32550048828125,-0.012115478515625,-0.943603515625
20230421-1516,2023-04-21 15:16:48,u10, 94,100,movements,wr-su, lt, d,957777.9874586251, -0.3108515047745448, 0.058289173553151274, -0.14610067512380032, 0.2267642468214035, 0.3872102200984955, -0.1338980793952942, -0.3053499758243561, -0.05825617164373398, -0.9504565000534058, -0.005547910928726196, 0.023756064474582672, 0.006212174892425537, 0.017419019986417705, -0.15642350914451839, 0.9845631917304166,-0.07657391135178915,-0.3108978271484375,-0.0345001220703125,-0.944244384765625
20230421-1516,2023-04-21 15:16:48,u10, 95,100,movements,wr-su, lt, d,957777.9974816251, -0.3070182390072013, 0.060448589835303976, -0.14666251199922556, 0.1559150367975235, 0.37377724051475525, -0.10196379572153091, -0.30166566371917725, -0.060411784797906876, -0.9514979124069214, -0.0020758509635925293, 0.02144085243344307, 0.005529284477233887, 0.01858637272119272, -0.15461437285247173, 0.984795879142947,-0.07697931337048178,-0.303741455078125,-0.038970947265625,-0.9459686279296875
20230421-1516,2023-04-21 15:16:48,u10, 96,100,movements,wr-su, lt, d,957778.007504625, -0.3032275876831227, 0.06213436395759714, -0.14698329567808124, 0.14953969419002533, 0.38066843152046204, -0.06281612813472748, -0.29802587628364563, -0.06209439039230347, -0.9525359869003296, -0.011925965547561646, 0.05202360451221466, 0.0028747916221618652, 0.019538605667262444, -0.15280784799311004, 0.9850400109332885,-0.07722697218517872,-0.3099517822265625,-0.01007080078125,-0.9496612548828125
20230421-1516,2023-04-21 15:16:48,u10, 97,100,movements,wr-su, lt, d,957778.0175266251, -0.2993245914227972, 0.06365865677285606, -0.14703342457194787, 0.12959307432174683, 0.3954375088214874, -0.039080433547496796, -0.2942776083946228, -0.06361567229032516, -0.9536004066467285, -0.015094369649887085, 0.07216061651706696, 0.004869997501373291, 0.020436977000499065, -0.150937498709875, 0.9853025164215428,-0.07732492134963218,-0.3093719482421875,0.008544921875,-0.94873046875
20230421-1516,2023-04-21 15:16:48,u10, 98,100,movements,wr-su, lt, d,957778.027549625, -0.29533437001132157, 0.06476497182564075, -0.14690232316452181, 0.0851835310459137, 0.39905568957328796, -0.0008813817985355854, -0.2904495596885681, -0.06471970677375793, -0.9546990990638733, -0.015840202569961548, 0.07887987792491913, 0.021944642066955566, 0.02114654589551699, -0.14900758813552306, 0.9855832659868609,-0.07729922329122307,-0.3062896728515625,0.01416015625,-0.9327545166015625
20230421-1516,2023-04-21 15:16:48,u10, 99,100,movements,wr-su, lt, d,957778.0375716251, -0.29134248721259465, 0.06518978548808145, -0.14665532588433983, 0.010285397991538048, 0.40224722027778625, 0.025512514635920525, -0.28662827610969543, -0.06514362245798111, -0.9558245539665222, -0.01253560185432434, 0.0527229830622673, 0.03176754713058472, 0.021528502632278124, -0.14705189105546645, 0.9858791297675383,-0.0771653439059354,-0.299163818359375,-0.012420654296875,-0.9240570068359375
20230421-1516,2023-04-21 15:16:48,u10, 100,100,movements,wr-su, lt, d,957778.047594625, -0.28729686880925565, 0.06479651023021454, -0.14628623896135942, -0.05798553675413132, 0.4105648100376129, 0.07189279794692993, -0.28276628255844116, -0.06475117802619934, -0.9570007920265198, -0.012247204780578613, 0.024864718317985535, 0.015014708042144775, 0.02151726192588669, -0.14504004343979035, 0.9861971199196786,-0.0769120493676645,-0.295013427734375,-0.039886474609375,-0.941986083984375
20230421-1516,2023-04-21 15:16:48,u10, 101,100,movements,wr-su, lt, d,957778.0576166251, -0.28320499035624785, 0.0637704632157421, -0.14554738443444132, -0.09368298202753067, 0.4182458817958832, 0.12555834650993347, -0.27886641025543213, -0.0637272521853447, -0.9582130908966064, -0.013690412044525146, 0.01244247704744339, -0.0022360682487487793, 0.021220956989150132, -0.14297942588022408, 0.9865417434175286,-0.07643243004872574,-0.2925567626953125,-0.0512847900390625,-0.96044921875
20230421-1516,2023-04-21 15:16:48,u10, 102,100,movements,wr-su, lt, d,957778.067639625, -0.27901414655977497, 0.06259880706408356, -0.14438376969834857, -0.05783017724752426, 0.43381980061531067, 0.16062632203102112, -0.27486860752105713, -0.06255792826414108, -0.959444522857666, -0.010730206966400146, 0.027905240654945374, -0.010037899017333984, 0.020884526087412442, -0.14086017338421958, 0.9869075899356984,-0.07573374557663734,-0.2855987548828125,-0.0346527099609375,-0.969482421875
20230421-1516,2023-04-21 15:16:48,u10, 103,100,movements,wr-su, lt, d,957778.0776616251, -0.2746871471220433, 0.061790118717088574, -0.14280597352505714, -0.01527575496584177, 0.4513322114944458, 0.17910178005695343, -0.2707281708717346, -0.061750806868076324, -0.9606732130050659, -0.009087562561035156, 0.06783907860517502, -0.015294134616851807, 0.020758314539798803, -0.13868118755219938, 0.9872857332655216,-0.07485525506334148,-0.279815673828125,0.0060882568359375,-0.9759674072265625
20230421-1516,2023-04-21 15:16:48,u10, 104,100,movements,wr-su, lt, d,957778.0876846251, -0.27016052201606977, 0.061108985991700636, -0.14101735255648698, -0.012972121126949787, 0.48094096779823303, 0.20185662806034088, -0.2663879692554474, -0.06107096001505852, -0.961929202079773, -0.010665923357009888, 0.09567791223526001, -0.006073117256164551, 0.020713133145492384, -0.13640516125070326, 0.9876772239051383,-0.07387982948385634,-0.2770538330078125,0.03460693359375,-0.9680023193359375
20230421-1516,2023-04-21 15:16:48,u10, 105,100,movements,wr-su, lt, d,957778.097707625, -0.26530496980063717, 0.06048633834896838, -0.1389092007437466, 0.00391441211104393, 0.5162689089775085, 0.2326299250125885, -0.2617240846157074, -0.06044946238398552, -0.9632478356361389, -0.020929783582687378, 0.05442225560545921, -3.9517879486083984e-05, 0.02072588814046677, -0.1339646505958452, 0.9880949423919948,-0.0727474448979581,-0.28265380859375,-0.0060272216796875,-0.963287353515625
20230421-1516,2023-04-21 15:16:49,u10, 106,100,movements,wr-su, lt, d,957778.1077296251, -0.26018217916485625, 0.0597742482092281, -0.13654335962844943, -0.01708594523370266, 0.5318995118141174, 0.2600306570529938, -0.2567971646785736, -0.059738658368587494, -0.9646173119544983, -0.018105268478393555, -0.003341156989336014, -0.007718503475189209, 0.020715465829299333, -0.13138579636709607, 0.9885338627009174,-0.07147949399974692,-0.27490234375,-0.063079833984375,-0.9723358154296875
20230421-1516,2023-04-21 15:16:49,u10, 107,100,movements,wr-su, lt, d,957778.117752625, -0.2549763138850741, 0.058947204579569853, -0.13384937045350073, 0.003438314888626337, 0.5387259721755981, 0.2976844012737274, -0.25178441405296326, -0.05891307070851326, -0.9659885168075562, -0.007706642150878906, -0.006196163594722748, 0.0020756125450134277, 0.020665770583249008, -0.12875814037512992, 0.9889834295815594,-0.07004164202660448,-0.259490966796875,-0.0651092529296875,-0.9639129638671875
20230421-1516,2023-04-21 15:16:49,u10, 108,100,movements,wr-su, lt, d,957778.1277746251, -0.2497817736947896, 0.05845071594997274, -0.1307166341403209, 0.06060519814491272, 0.5318017601966858, 0.3227072060108185, -0.24677036702632904, -0.058417439460754395, -0.9673116207122803, 0.009969159960746765, -0.003579001873731613, -0.008136928081512451, 0.020799512137734188, -0.12614106069699624, 0.9894322089789493,-0.06840763975679104,-0.2368011474609375,-0.0619964599609375,-0.9754486083984375
20230421-1516,2023-04-21 15:16:49,u10, 109,100,movements,wr-su, lt, d,957778.137797625, -0.24475199776942877, 0.05849686532110806, -0.12734932913659222, 0.1126822829246521, 0.5110307335853577, 0.3230595886707306, -0.2419012486934662, -0.05846351012587547, -0.9685379862785339, 0.02142694592475891, 0.004584744572639465, -0.009107887744903564, 0.021202493051456762, -0.1236182518020027, 0.9898590774147208,-0.06669140192764175,-0.2204742431640625,-0.0538787841796875,-0.9776458740234375
20230421-1516,2023-04-21 15:16:49,u10, 110,100,movements,wr-su, lt, d,957778.1478196251, -0.2398253214947314, 0.05882756574182624, -0.1239653013913926, 0.11199811846017838, 0.5168502330780029, 0.31288525462150574, -0.2371220588684082, -0.05879364162683487, -0.9696991443634033, 0.013138234615325928, 0.02548372745513916, 0.0019715428352355957, 0.021735531712092578, -0.1211527755963022, 0.9902659333373888,-0.06498294303321028,-0.2239837646484375,-0.0333099365234375,-0.9677276611328125
20230421-1516,2023-04-21 15:16:49,u10, 111,100,movements,wr-su, lt, d,957778.157842625, -0.23478639950497068, 0.05902472012770958, -0.12067325753829826, 0.08008278161287308, 0.5298457145690918, 0.31557005643844604, -0.23223012685775757, -0.05899045243859291, -0.9708703756332397, -0.002053380012512207, 0.0587463341653347, -0.0020604729652404785, 0.02219216583088354, -0.11862680323139924, 0.9906700524855236,-0.06330873223678753,-0.234283447265625,-0.000244140625,-0.972930908203125
20230421-1516,2023-04-21 15:16:49,u10, 112,100,movements,wr-su, lt, d,957778.167865625, -0.22967507249838995, 0.058719038218989675, -0.1174934663629361, 0.003476683981716633, 0.5287977457046509, 0.3138669729232788, -0.2272687703371048, -0.058685302734375, -0.9720622301101685, -0.011989116668701172, 0.0775146633386612, 0.007584691047668457, 0.022386902306071873, -0.1160505196259287, 0.9910747542448374,-0.061658980652885234,-0.2392578125,0.018829345703125,-0.9644775390625
20230421-1516,2023-04-21 15:16:49,u10, 113,100,movements,wr-su, lt, d,957778.1778876251, -0.2245215757715209, 0.05754818500926706, -0.11462071812860748, -0.09660211950540543, 0.5363608598709106, 0.2929481565952301, -0.2222713977098465, -0.0575164258480072, -0.9732868671417236, -0.02209816873073578, 0.0627196878194809, 0.022191286087036133, 0.02212805725067844, -0.11343248225445605, 0.9914785781818048,-0.060112570480692656,-0.2443695068359375,0.0052032470703125,-0.9510955810546875
20230421-1516,2023-04-21 15:16:49,u10, 114,100,movements,wr-su, lt, d,957778.187910625, -0.2193131592106141, 0.055652150496004624, -0.11196088781723726, -0.14092856645584106, 0.535442054271698, 0.31147176027297974, -0.21722246706485748, -0.05562342703342438, -0.9745360016822815, -0.03349478542804718, 0.03157559409737587, 0.026141226291656494, 0.02149129490749126, -0.11077058133671341, 0.9918819930992269,-0.05863366720228975,-0.2507171630859375,-0.0240478515625,-0.948394775390625
20230421-1516,2023-04-21 15:16:49,u10, 115,100,movements,wr-su, lt, d,957778.1979326251, -0.2141165630016252, 0.05394606586428537, -0.10906537760293888, -0.04583969712257385, 0.5388572812080383, 0.32073739171028137, -0.2121751457452774, -0.05391990393400192, -0.9757429957389832, -0.035841286182403564, -0.006855834275484085, 0.0017744898796081543, 0.020953467632262548, -0.10811782926196005, 0.9922784776353226,-0.05705143354407789,-0.248016357421875,-0.0607757568359375,-0.973968505859375
20230421-1516,2023-04-21 15:16:49,u10, 116,100,movements,wr-su, lt, d,957778.207955625, -0.20872084904705812, 0.05352215880368738, -0.10590065807678477, 0.09680134803056717, 0.5777139067649841, 0.31292739510536194, -0.20691196620464325, -0.05349661037325859, -0.9768958687782288, -0.03828158974647522, -0.018219683319330215, -0.03039783239364624, 0.02106366563517316, -0.10539632179965676, 0.9926623188825742,-0.05540228758745522,-0.2451934814453125,-0.07171630859375,-1.007293701171875
20230421-1516,2023-04-21 15:16:49,u10, 117,100,movements,wr-su, lt, d,957778.2179776251, -0.20289393011759818, 0.05419397639894033, -0.10245049083595133, 0.1671430617570877, 0.6229119896888733, 0.33009642362594604, -0.2012089043855667, -0.054167453199625015, -0.9780495166778564, -0.04271818697452545, 0.006895743310451508, -0.033013105392456055, 0.021735453679313694, -0.10248322025751687, 0.9930484303096803,-0.053661156017895825,-0.243927001953125,-0.047271728515625,-1.0110626220703125
20230421-1516,2023-04-21 15:16:49,u10, 118,100,movements,wr-su, lt, d,957778.228000625, -0.19672477086460696, 0.05516179642318939, -0.09883712186993583, 0.16805332899093628, 0.6465520858764648, 0.33499157428741455, -0.19516102969646454, -0.05513382703065872, -0.9792203307151794, -0.03954973816871643, 0.0018654130399227142, -0.015011847019195557, 0.02256132369521515, -0.09940235343144393, 0.9934395277970745,-0.05184587790075025,-0.234710693359375,-0.0532684326171875,-0.994232177734375
20230421-1516,2023-04-21 15:16:49,u10, 119,100,movements,wr-su, lt, d,957778.2380236251, -0.1903966433618084, 0.05588956026150776, -0.09516420963469575, 0.11954256892204285, 0.6617373824119568, 0.3518739640712738, -0.18895289301872253, -0.05586046725511551, -0.980396032333374, -0.034176453948020935, -0.0194111168384552, -0.003841578960418701, 0.023263721078846146, -0.09623292349804947, 0.9938307742891253,-0.049983228636582666,-0.2231292724609375,-0.0752716064453125,-0.9842376708984375
20230421-1516,2023-04-21 15:16:49,u10, 120,100,movements,wr-su, lt, d,957778.248045625, -0.18379863490255924, 0.05626729715646652, -0.091366464323315, 0.10914452373981476, 0.7036851048469543, 0.37939372658729553, -0.18247629702091217, -0.056237611919641495, -0.9816005825996399, -0.023532703518867493, -0.010885778814554214, -0.008435368537902832, 0.02379277806933837, -0.09291720053151284, 0.9942297279012605,-0.04803543807970985,-0.2060089111328125,-0.0671234130859375,-0.9900360107421875
20230421-1516,2023-04-21 15:16:49,u10, 121,100,movements,wr-su, lt, d,957778.258068625, -0.17676791503304742, 0.056635179323364815, -0.08722878761066749, 0.1047002375125885, 0.7438562512397766, 0.41721946001052856, -0.17556683719158173, -0.05660490691661835, -0.9828388094902039, -0.003220483660697937, 0.017099924385547638, -0.026072263717651367, 0.024329436278792207, -0.08937932377194537, 0.9946413993106519,-0.04590982628241694,-0.1787872314453125,-0.0395050048828125,-1.0089111328125
20230421-1516,2023-04-21 15:16:49,u10, 122,100,movements,wr-su, lt, d,957778.2680906251, -0.16959819383444108, 0.05650211869200183, -0.08285439121106343, 0.016040146350860596, 0.7343271970748901, 0.44057536125183105, -0.16851696372032166, -0.0564720593392849, -0.9840797185897827, 0.024504423141479492, 0.03820731118321419, -0.03340679407119751, 0.024615276131889807, -0.085756737818569, 0.9950554220335657,-0.043640488113068227,-0.144012451171875,-0.0182647705078125,-1.017486572265625
20230421-1516,2023-04-21 15:16:49,u10, 123,100,movements,wr-su, lt, d,957778.278113625, -0.16280680010922013, 0.055153552458853394, -0.07860816536071202, -0.1395869106054306, 0.6696168780326843, 0.43257835507392883, -0.16184206306934357, -0.05512559413909912, -0.9852757453918457, 0.0544964075088501, 0.03945484384894371, -0.03578132390975952, 0.02426683350737814, -0.08229970922224322, 0.9954520744189859,-0.0413893026054938,-0.1073455810546875,-0.0156707763671875,-1.02105712890625
20230421-1516,2023-04-21 15:16:49,u10, 124,100,movements,wr-su, lt, d,957778.2881356251, -0.1567086540224988, 0.05219485313547365, -0.07481661953039974, -0.3113669157028198, 0.5930438041687012, 0.4081172049045563, -0.15585550665855408, -0.05217115581035614, -0.9864011406898499, 0.07181000709533691, 0.03230423480272293, -0.049212872982025146, 0.02306977827076206, -0.07916570851238919, 0.995818778120025,-0.03931323653716314,-0.08404541015625,-0.019866943359375,-1.035614013671875
20230421-1516,2023-04-21 15:16:49,u10, 125,100,movements,wr-su, lt, d,957778.298158625, -0.15127391553549793, 0.047894945130964595, -0.07132506689904704, -0.4114500880241394, 0.5330113768577576, 0.40939027070999146, -0.1505248099565506, -0.04787663742899895, -0.9874462485313416, 0.06118454039096832, 0.021906200796365738, -0.05031919479370117, 0.02116804962244663, -0.07634648440431588, 0.9961566097389976,-0.03735110359526959,-0.0893402099609375,-0.025970458984375,-1.0377655029296875
20230421-1516,2023-04-21 15:16:49,u10, 126,100,movements,wr-su, lt, d,957778.3081816251, -0.14626722875006418, 0.04297646963498018, -0.06779647470952008, -0.42381808161735535, 0.5127396583557129, 0.43347135186195374, -0.14561167359352112, -0.042963240295648575, -0.9884085059165955, 0.02744753658771515, 0.026239633560180664, -0.06316614151000977, 0.018940989703689903, -0.07373587260451324, 0.9964706685664662,-0.03536243554870749,-0.1181640625,-0.0167236328125,-1.05157470703125
20230421-1516,2023-04-21 15:16:49,u10, 127,100,movements,wr-su, lt, d,957778.318203625, -0.14103396592304607, 0.03821339522928428, -0.06387806356585046, -0.3892163038253784, 0.5727705359458923, 0.4764859080314636, -0.14046427607536316, -0.038204096257686615, -0.9893484115600586, -0.010094285011291504, 0.054805681109428406, -0.0677804946899414, 0.01679874858177509, -0.07101836349742362, 0.9967809307851222,-0.03319388753740181,-0.1505584716796875,0.0166015625,-1.05712890625
20230421-1516,2023-04-21 15:16:49,u10, 128,100,movements,wr-su, lt, d,957778.3282266251, -0.13509614519827315, 0.033427577718836504, -0.059554973416669106, -0.4377303123474121, 0.6454449892044067, 0.5065231919288635, -0.1346103399991989, -0.0334213525056839, -0.9903348088264465, -0.043597131967544556, 0.03734288364648819, -0.04564535617828369, 0.014658200296073762, -0.06795383980357068, 0.9971042327551294,-0.030828615524179398,-0.1782073974609375,0.0039215087890625,-1.035980224609375
20230421-1516,2023-04-21 15:16:49,u10, 129,100,movements,wr-su, lt, d,957778.338248625, -0.12855319880503172, 0.027542979873588037, -0.05503613425605224, -0.5993061065673828, 0.6853188872337341, 0.535414457321167, -0.1281507909297943, -0.02753949724137783, -0.9913722276687622, -0.05471062660217285, -0.03940078616142273, -0.011908352375030518, 0.011970255249625151, -0.06458006940633505, 0.99743814881844,-0.028339386610861723,-0.182861328125,-0.0669403076171875,-1.0032806396484375
20230421-1516,2023-04-21 15:16:49,u10, 130,100,movements,wr-su, lt, d,957778.348271625, -0.12183012453799989, 0.01995153356250998, -0.05046063605191415, -0.7598401308059692, 0.6758758425712585, 0.5526978373527527, -0.1215047836303711, -0.01995020918548107, -0.9923903346061707, -0.03839215636253357, -0.11055819690227509, 0.031788527965545654, 0.008418213753466753, -0.061106192215630566, 0.9977625275344532,-0.025786694826677035,-0.1598968505859375,-0.1305084228515625,-0.960601806640625
20230421-1516,2023-04-21 15:16:49,u10, 131,100,movements,wr-su, lt, d,957778.3582936251, -0.115251582209798, 0.010948392596165578, -0.04600232390929655, -0.9080219268798828, 0.6564510464668274, 0.538830041885376, -0.11498971283435822, -0.010948173701763153, -0.9933063387870789, -0.01480162888765335, -0.14128874242305756, 0.05667608976364136, 0.004139046750494389, -0.057703499600367206, 0.9980537853071189,-0.023275809410011047,-0.129791259765625,-0.1522369384765625,-0.9366302490234375
20230421-1516,2023-04-21 15:16:49,u10, 132,100,movements,wr-su, lt, d,957778.368316625, -0.10873872666890072, 0.00041454898450554544, -0.04182138458962142, -1.07806396484375, 0.6516520380973816, 0.5282421112060547, -0.10852455347776413, -0.0004145489656366408, -0.994093656539917, -0.009120799601078033, -0.12328843772411346, 0.05210763216018677, -0.0009293351998274275, -0.054335027157053226, 0.9983037933752023,-0.02088953297732069,-0.117645263671875,-0.1237030029296875,-0.941986083984375
20230421-1516,2023-04-21 15:16:49,u10, 133,100,movements,wr-su, lt, d,957778.3783386251, -0.10227769575375519, -0.011592997898224957, -0.03765583622343244, -1.1913666725158691, 0.63204425573349, 0.5468354225158691, -0.10209260880947113, 0.011592738330364227, -0.9947073459625244, -0.010044321417808533, -0.08219513297080994, 0.018709421157836914, -0.006750208423502348, -0.050997658271796725, 0.9985044531916749,-0.01850563520156983,-0.1121368408203125,-0.0706024169921875,-0.9759979248046875
20230421-1516,2023-04-21 15:16:49,u10, 134,100,movements,wr-su, lt, d,957778.388363, -0.09608957798414777, -0.023986171447571997, -0.03334304953932298, -1.158655047416687, 0.5851419568061829, 0.5527138113975525, -0.09591417759656906, 0.023983871564269066, -0.9951006174087524, -0.0020626038312911987, -0.056866541504859924, -0.02159249782562256, -0.012777873263275051, -0.04781648653115781, 0.9986449421147751,-0.016074429847963242,-0.0979766845703125,-0.0328826904296875,-1.016693115234375
20230421-1516,2023-04-21 15:16:49,u10, 135,100,movements,wr-su, lt, d,957778.3983860001, -0.09041693360515175, -0.03556218312459003, -0.02871370126345475, -1.0364843606948853, 0.5315876603126526, 0.5838803052902222, -0.09023670107126236, 0.035554688423871994, -0.9952855110168457, -3.439188003540039e-05, -0.0447404608130455, -0.0767664909362793, -0.01840886505400492, -0.04492627538945815, 0.9987288424770211,-0.013535966372537947,-0.09027099609375,-0.009185791015625,-1.072052001953125
20230421-1516,2023-04-21 15:16:49,u10, 136,100,movements,wr-su, lt, d,957778.408408, -0.08489365242072289, -0.04598355435146215, -0.023575656982308957, -0.9519641995429993, 0.5346801280975342, 0.6210591197013855, -0.08470208942890167, 0.04596735164523125, -0.9953454732894897, -0.020522616803646088, -0.014061205089092255, -0.11686766147613525, -0.023467511351862654, -0.04214917168412008, 0.9987772597146529,-0.010798344700768611,-0.105224609375,0.0319061279296875,-1.112213134765625
20230421-1516,2023-04-21 15:16:49,u10, 137,100,movements,wr-su, lt, d,957778.4184310001, -0.07921648908720975, -0.05589874303251902, -0.017996851043268047, -0.9179357290267944, 0.5457631349563599, 0.6485660672187805, -0.07901006191968918, 0.055869635194540024, -0.9953069686889648, -0.04930119216442108, 0.02732129767537117, -0.09296512603759766, -0.028278861434772158, -0.039329557481981074, 0.9987948800431783,-0.007881188319174693,-0.1283111572265625,0.08319091796875,-1.0882720947265625
20230421-1516,2023-04-21 15:16:49,u10, 138,100,movements,wr-su, lt, d,957778.428453, -0.073305670390221, -0.0654770799896575, -0.012115278087881503, -0.900188684463501, 0.5772387981414795, 0.6630158424377441, -0.07308308780193329, 0.06543030589818954, -0.9951772093772888, -0.07132618129253387, 0.043258070945739746, -0.046830177307128906, -0.032931970025661304, -0.03642617558323254, 0.9987817094718511,-0.004850834511513828,-0.1444091796875,0.1086883544921875,-1.0420074462890625
20230421-1516,2023-04-21 15:16:49,u10, 139,100,movements,wr-su, lt, d,957778.4384760001, -0.06676803616632374, -0.07552521366679094, -0.006242312026352366, -1.0321402549743652, 0.6500983238220215, 0.6428923606872559, -0.06652824580669403, 0.07545343041419983, -0.9949275255203247, -0.08721940219402313, 0.030701979994773865, -0.004858851432800293, -0.03783651852300661, -0.03323609262504727, 0.998729268825913,-0.0018570601927162464,-0.15374755859375,0.1061553955078125,-0.999786376953125
20230421-1516,2023-04-21 15:16:49,u10, 140,100,movements,wr-su, lt, d,957778.448498, -0.05955737157863369, -0.08697493786991069, -0.0004014618397987881, -1.129795789718628, 0.6922119855880737, 0.6626492738723755, -0.05929717794060707, 0.08686532080173492, -0.9944537281990051, -0.09951639175415039, 0.009448163211345673, 0.0440906286239624, -0.0434604641463453, -0.02973741545417315, 0.9986117609223418,0.001093948375749185,-0.1588134765625,0.0963134765625,-0.9503631591796875
20230421-1516,2023-04-21 15:16:49,u10, 141,100,movements,wr-su, lt, d,957778.4585210001, -0.05208449294482673, -0.09880894044501061, 0.005694444076740274, -1.1556216478347778, 0.6860310435295105, 0.6751071214675903, -0.051807012408971786, 0.09864823520183563, -0.9937728643417358, -0.09255649149417877, -0.04614272713661194, 0.018843114376068115, -0.049293380232686035, -0.026147985895194407, 0.9984334769022969,0.004128709351421501,-0.1443634033203125,0.0525054931640625,-0.9749298095703125
20230421-1516,2023-04-21 15:16:49,u10, 142,100,movements,wr-su, lt, d,957778.4685440001, -0.044746457289750026, -0.11009065498726295, 0.012085466303195297, -0.9811064004898071, 0.6506109833717346, 0.7046841979026794, -0.044460728764534, 0.10986840724945068, -0.9929512739181519, -0.06929364055395126, -0.019780509173870087, -0.025405049324035645, -0.05486778239313071, -0.022669441697442796, 0.9982098249327521,0.007262828823901995,-0.1137542724609375,0.090087890625,-1.0183563232421875
20230421-1516,2023-04-21 15:16:49,u10, 143,100,movements,wr-su, lt, d,957778.478566, -0.03750689055547266, -0.11851857458517248, 0.019008985214515852, -0.6231581568717957, 0.6434249877929688, 0.7335904240608215, -0.037235043942928314, 0.11824130266904831, -0.9922865033149719, -0.04191238805651665, 0.05160428583621979, -0.0506821870803833, -0.05903360574565895, -0.01928137668307991, 0.9980135124197224,0.010596548288026685,-0.0791473388671875,0.1698455810546875,-1.04296875
20230421-1516,2023-04-21 15:16:49,u10, 144,100,movements,wr-su, lt, d,957778.4885890001, -0.03010348114638763, -0.12338773824090439, 0.026370986941601268, -0.30328989028930664, 0.6633139848709106, 0.7579671144485474, -0.029870104044675827, 0.12307488918304443, -0.9919477701187134, -0.022406606003642082, 0.10592903196811676, -0.09376084804534912, -0.06144432641089509, -0.015834065285475717, 0.9978854506149061,0.014086432586398537,-0.052276611328125,0.22900390625,-1.0857086181640625
20230421-1516,2023-04-21 15:16:49,u10, 145,100,movements,wr-su, lt, d,957778.498611, -0.02245690334538445, -0.1256313649152225, 0.03401054336269677, -0.11317095160484314, 0.6684166193008423, 0.7605652213096619, -0.022278042510151863, 0.12530115246772766, -0.9918686151504517, -0.016876108944416046, 0.12331031262874603, -0.12779080867767334, -0.06257079660684424, -0.012271827650443507, 0.9978085230230425,0.017674588076664062,-0.039154052734375,0.2486114501953125,-1.119659423828125
20230421-1516,2023-04-21 15:16:49,u10, 146,100,movements,wr-su, lt, d,957778.5086340001, -0.01514179717553582, -0.1263092940502782, 0.041494799627083245, 0.008288901299238205, 0.5974305868148804, 0.7267166972160339, -0.015020597726106644, 0.12597370147705078, -0.9919198751449585, -0.008844247087836266, 0.08984662592411041, -0.128121018409729, -0.06294053634187269, -0.008863400321724167, 0.9977530273550249,0.021181673176585626,-0.02386474609375,0.2158203125,-1.1200408935546875
20230421-1516,2023-04-21 15:16:49,u10, 147,100,movements,wr-su, lt, d,957778.518656, -0.008620653153238655, -0.12580248705082964, 0.04874769685909091, 0.09771229326725006, 0.5228551626205444, 0.7094722390174866, -0.008552420884370804, 0.12547092139720917, -0.9920604228973389, 0.006797559559345245, 0.06436368823051453, -0.09427380561828613, -0.06273568153203797, -0.005832480521894187, 0.9977099893477491,0.024593878028672442,-0.0017547607421875,0.1898345947265625,-1.086334228515625
20230421-1516,2023-04-21 15:16:49,u10, 148,100,movements,wr-su, lt, d,957778.5286790001, -0.0029263174204978712, -0.12466407090831753, 0.05574052543637081, 0.1558227390050888, 0.43811947107315063, 0.6728785634040833, -0.002903603482991457, 0.12434142082929611, -0.9922352433204651, 0.010853332467377186, 0.06331118196249008, -0.06535142660140991, -0.06222673572739769, -0.0031956092681019073, 0.9976666678977061,0.027903618079610674,0.0079498291015625,0.187652587890625,-1.057586669921875
20230421-1516,2023-04-21 15:16:49,u10, 149,100,movements,wr-su, lt, d,957778.538702, 0.0019930927152284057, -0.12263086315437483, 0.062349679244452554, 0.2549957036972046, 0.3816292881965637, 0.6364032626152039, 0.0019781237933784723, 0.12232373654842377, -0.9924882650375366, -0.015100782737135887, 0.06351307779550552, -0.03445875644683838, -0.06127822381710414, -0.0009158011606473252, 0.997637125144445,0.03105016774050389,-0.01312255859375,0.1858367919921875,-1.026947021484375
20230421-1516,2023-04-21 15:16:49,u10, 150,100,movements,wr-su, lt, d,957778.5487240001, 0.006547198901112556, -0.11942009627110978, 0.06872129752578308, 0.4146895110607147, 0.3833739459514618, 0.6407423615455627, 0.00650052260607481, 0.11913645267486572, -0.9928566217422485, -0.06852760165929794, 0.04025687277317047, -0.006060004234313965, -0.059751295876068304, 0.0012157879338029625, 0.9976299431113631,0.034097249514557594,-0.0620269775390625,0.159393310546875,-0.9989166259765625
20230421-1516,2023-04-21 15:16:49,u10, 151,100,movements,wr-su, lt, d,957778.5587470001, 0.01145034962693613, -0.11364022783803403, 0.07530145164964593, 0.7415378093719482, 0.44931378960609436, 0.6799419522285461, 0.011376244947314262, 0.1133957952260971, -0.9934847354888916, -0.11888977885246277, 0.03775778412818909, -0.013396918773651123, -0.05696352987840057, 0.00357422577611677, 0.9976744072562304,0.03725557306489461,-0.107513427734375,0.151153564453125,-1.0068817138671875
20230421-1516,2023-04-21 15:16:49,u10, 152,100,movements,wr-su, lt, d,957778.568769, 0.017339979917304942, -0.10380396183445759, 0.08241987239651642, 1.20344078540802, 0.5679781436920166, 0.7573847770690918, 0.017245778813958168, 0.10361764580011368, -0.9944676756858826, -0.15654337406158447, 0.033848799765110016, -0.015831947326660156, -0.05218939235815436, 0.0065136238221939445, 0.9977865346239065,0.04069184960923114,-0.1392974853515625,0.1374664306640625,-1.0102996826171875
20230421-1516,2023-04-21 15:16:49,u10, 153,100,movements,wr-su, lt, d,957778.5787920001, 0.024073281106460787, -0.0894799349710805, 0.08978265435189027, 1.6336450576782227, 0.6352948546409607, 0.7681558132171631, 0.02397465705871582, 0.08936057984828949, -0.9957107305526733, -0.16171585023403168, 0.0903116911649704, -0.04661715030670166, -0.04521635304081686, 0.010005244669660282, 0.9979447880033975,0.04429031216261778,-0.1377410888671875,0.1796722412109375,-1.042327880859375
20230421-1516,2023-04-21 15:16:49,u10, 154,100,movements,wr-su, lt, d,957778.588814, 0.0316052998391541, -0.07094019005312496, 0.09728076545364613, 1.9967070817947388, 0.7467972040176392, 0.8179259896278381, 0.03152055665850639, 0.0708807036280632, -0.9969866275787354, -0.14513760805130005, 0.2049677073955536, 0.05339843034744263, -0.0361841222280891, 0.014049353597273606, 0.9980916385152291,0.04802483837987062,-0.113616943359375,0.275848388671875,-0.9435882568359375
20230421-1516,2023-04-21 15:16:49,u10, 155,100,movements,wr-su, lt, d,957778.5988370001, 0.03973680497858061, -0.05041592075473924, 0.1044282146624961, 2.0148375034332275, 0.7783734798431396, 0.7449259161949158, 0.03967587277293205, 0.05039456486701965, -0.9979409575462341, -0.11619880795478821, 0.17903661727905273, 0.1393747329711914, -0.026202515805336165, 0.01851850321761628, 0.9981489053827918,0.05166343679093595,-0.0765228271484375,0.22943115234375,-0.8585662841796875
20230421-1516,2023-04-21 15:16:49,u10, 156,100,movements,wr-su, lt, d,957778.60886, 0.04750685818063116, -0.029676946329944345, 0.11051028067927511, 2.057492971420288, 0.7195261120796204, 0.6498835682868958, 0.04746808111667633, 0.029672591015696526, -0.998431921005249, -0.06953239440917969, 0.1463070511817932, 0.17299246788024902, -0.016122668058105773, 0.022893113295038445, 0.9981016973258915,0.05485349109100363,-0.022064208984375,0.1759796142578125,-0.825439453125
20230421-1516,2023-04-21 15:16:49,u10, 157,100,movements,wr-su, lt, d,957778.6188820001, 0.0545429749046404, -0.008786364166061678, 0.11566788098520334, 2.045712947845459, 0.6672336459159851, 0.5899779200553894, 0.054513830691576004, 0.008786250837147236, -0.9984743595123291, -0.02366066724061966, 0.07077310979366302, 0.1386721134185791, -0.005960319746015697, 0.026968415535405754, 0.9979541830708791,0.057660060281933656,0.030853271484375,0.079559326171875,-0.85980224609375
20230421-1516,2023-04-21 15:16:49,u10, 158,100,movements,wr-su, lt, d,957778.628905, 0.060831667386760505, 0.011420976567320553, 0.11988441769179775, 1.9169676303863525, 0.594617486000061, 0.47880133986473083, 0.06079019233584404, -0.011420728638768196, -0.9980852007865906, 0.012223009020090103, -0.015144786797463894, 0.09130114316940308, 0.003875774797157032, 0.03069796623876711, 0.9977156024427425,0.060050986396633664,0.0730133056640625,-0.0265655517578125,-0.9067840576171875
20230421-1516,2023-04-21 15:16:49,u10, 159,100,movements,wr-su, lt, d,957778.6389270001, 0.06628529856272171, 0.030690282328909208, 0.12340647257773821, 1.9141788482666016, 0.516318142414093, 0.4735301733016968, 0.06620557606220245, -0.030685463920235634, -0.9973340630531311, -0.0039650797843933105, -0.13063041865825653, 0.0738263726234436, 0.013263830659055797, 0.03401531651357086, 0.9974000042829085,0.06213047014570149,0.0622406005859375,-0.16131591796875,-0.9235076904296875
20230421-1516,2023-04-21 15:16:49,u10, 160,100,movements,wr-su, lt, d,957778.6489500001, 0.07125319095436251, 0.05090023849087677, 0.12684555112000712, 2.1194229125976562, 0.5208258032798767, 0.4888199269771576, 0.07110071182250977, -0.050878264009952545, -0.996170699596405, -0.008326157927513123, -0.18630431592464447, 0.05783146619796753, 0.023123279273877813, 0.03714777231828316, 0.9969757199157885,0.06422412468591608,0.062774658203125,-0.2371826171875,-0.9383392333984375
20230421-1516,2023-04-21 15:16:49,u10, 161,100,movements,wr-su, lt, d,957778.658972, 0.07631449947354539, 0.07346611585031727, 0.1297718351517601, 2.320171594619751, 0.5265085101127625, 0.4161638021469116, 0.0760347917675972, -0.07340005040168762, -0.994399905204773, -0.008819937705993652, -0.14107745885849, 0.14802539348602295, 0.03414897727231317, 0.04042155073713146, 0.9964057849246841,0.06614751906564154,0.0672149658203125,-0.2144775390625,-0.84637451171875
20230421-1516,2023-04-21 15:16:49,u10, 162,100,movements,wr-su, lt, d,957778.6689950001, 0.08134973759509101, 0.09675560123728488, 0.1315126923439593, 2.2471392154693604, 0.5138384699821472, 0.28228774666786194, 0.08087997138500214, -0.09660470485687256, -0.9920312166213989, -0.004677683115005493, -0.08218247443437576, 0.22611629962921143, 0.04554567002354126, 0.04370329004559585, 0.9957177617800738,0.06754001086799212,0.076202392578125,-0.1787872314453125,-0.7659149169921875
20230421-1516,2023-04-21 15:16:49,u10, 163,100,movements,wr-su, lt, d,957778.679017, 0.08654439111013403, 0.11762505523831629, 0.13196505770320305, 1.9141018390655518, 0.5576512217521667, 0.17783552408218384, 0.08583912998437881, -0.11735400557518005, -0.9893733859062195, -0.03553101420402527, -0.07902655750513077, 0.2790462374687195, 0.055748508557348454, 0.04696185457238429, 0.9949985743070007,0.06829620780749505,0.0503082275390625,-0.196380615234375,-0.7103271484375
20230421-1516,2023-04-21 15:16:49,u10, 164,100,movements,wr-su, lt, d,957778.6890400001, 0.09225455866057147, 0.13554409456855793, 0.13182458986949197, 1.663264513015747, 0.5710972547531128, 0.09963393211364746, 0.0912787914276123, -0.1351294368505478, -0.9866145253181458, -0.06515585631132126, -0.09095999598503113, 0.27524977922439575, 0.06447114841882091, 0.050360788238338026, 0.9942733238848607,0.06875933903340173,0.026123046875,-0.2260894775390625,-0.71136474609375
20230421-1516,2023-04-21 15:16:49,u10, 165,100,movements,wr-su, lt, d,957778.699063, 0.09793225812019517, 0.1510068212629931, 0.1308754081140784, 1.4347575902938843, 0.5472731590270996, 0.011348305270075798, 0.09666311740875244, -0.15043357014656067, -0.9838831424713135, -0.0375201553106308, -0.05856601893901825, 0.2659723162651062, 0.07198848376772639, 0.05362929656759379, 0.9935827060441886,0.0688107785247581,0.05914306640625,-0.2089996337890625,-0.7179107666015625
20230421-1516,2023-04-21 15:16:49,u10, 166,100,movements,wr-su, lt, d,957778.7090850001, 0.10363424552909498, 0.16428512551584626, 0.12925722109526705, 1.229034423828125, 0.5414749383926392, -0.06878967583179474, 0.10205595195293427, -0.16354712843894958, -0.9812425374984741, -0.02084878832101822, -0.041897162795066833, 0.23458421230316162, 0.07843526486389825, 0.0568035234224935, 0.9929381523905023,0.06852030777264197,0.081207275390625,-0.2054443359375,-0.7466583251953125
20230421-1516,2023-04-21 15:16:49,u10, 167,100,movements,wr-su, lt, d,957778.719108, 0.10945333753725514, 0.17466599296499338, 0.12700827754173788, 0.8557116985321045, 0.5483511686325073, -0.1434050053358078, 0.10757287591695786, -0.1737792193889618, -0.9788916707038879, -0.012876950204372406, -0.05455322563648224, 0.23156195878982544, 0.08345781787989752, 0.05990800284101928, 0.9923896743183371,0.06788632987508209,0.094696044921875,-0.22833251953125,-0.7473297119140625
20230421-1516,2023-04-21 15:16:49,u10, 168,100,movements,wr-su, lt, d,957778.7291300001, 0.11533895764422851, 0.18068523419320728, 0.12498985112621584, 0.399442195892334, 0.5532964468002319, -0.09891742467880249, 0.11320993304252625, -0.1797036975622177, -0.9771847724914551, -0.012883506715297699, -0.04853720963001251, 0.21423006057739258, 0.08630892920834263, 0.06291564591994758, 0.9920005157094455,0.06728604615771627,0.1003265380859375,-0.228240966796875,-0.7629547119140625
20230421-1516,2023-04-21 15:16:49,u10, 169,100,movements,wr-su, lt, d,957778.7391530001, 0.12053860720095029, 0.1833671098352825, 0.12397344565839534, 0.17422643303871155, 0.428268164396286, -0.058614131063222885, 0.11823102086782455, -0.18234126269817352, -0.9761009812355042, 0.0022217482328414917, -0.0880444198846817, 0.18864059448242188, 0.08749784046979557, 0.06552592564155854, 0.9917413282030216,0.06707889238612905,0.120452880859375,-0.2703857421875,-0.7874603271484375
20230421-1516,2023-04-21 15:16:49,u10, 170,100,movements,wr-su, lt, d,957778.749175, 0.12406128667031775, 0.1830270768287144, 0.12299277333911456, -0.23258207738399506, 0.2488643229007721, -0.14492745697498322, 0.12167643755674362, -0.18200692534446716, -0.9757398962974548, 0.04096687585115433, -0.14308150112628937, 0.19369643926620483, 0.08724381788898755, 0.06722034439987215, 0.9916733086934441,0.06673714679984157,0.1626434326171875,-0.3250885009765625,-0.78204345703125
20230421-1516,2023-04-21 15:16:49,u10, 171,100,movements,wr-su, lt, d,957778.7591980001, 0.1260459855288531, 0.178359181026825, 0.12194837822865401, -0.6907662153244019, 0.12348589301109314, -0.16382582485675812, 0.12371820211410522, -0.17741502821445465, -0.9763286709785461, 0.026138246059417725, -0.10108834505081177, 0.20972710847854614, 0.08489684140133534, 0.06803074095185857, 0.9918595663865634,0.06617254955025148,0.1498565673828125,-0.27850341796875,-0.7666015625
20230421-1516,2023-04-21 15:16:49,u10, 172,100,movements,wr-su, lt, d,957778.769221, 0.1269774235415281, 0.1691403675699004, 0.12155684487026214, -1.0785324573516846, 0.04971393942832947, -0.13927841186523438, 0.12482935935258865, -0.16833505034446716, -0.9777939319610596, 0.006884396076202393, -0.07365402579307556, 0.23615574836730957, 0.08030357505861228, 0.06822301322044645, 0.9922567925710235,0.06575134965569628,0.1317138671875,-0.2419891357421875,-0.74163818359375
20230421-1516,2023-04-21 15:16:49,u10, 173,100,movements,wr-su, lt, d,957778.7792430001, 0.1269840229526831, 0.15602703543616372, 0.12226977632816181, -1.5453988313674927, -0.02224813401699066, -0.04867708310484886, 0.125104621052742, -0.1553947478532791, -0.9798986315727234, -0.02000221610069275, -0.05806039273738861, 0.2616674304008484, 0.07376731342997025, 0.06789015832050048, 0.9927888166481716,0.06572390720437121,0.1051025390625,-0.2134552001953125,-0.718231201171875
20230421-1516,2023-04-21 15:16:49,u10, 174,100,movements,wr-su, lt, d,957778.789266, 0.12579172456241874, 0.13952673576925315, 0.12440251800029671, -1.7137387990951538, -0.16266517341136932, 0.04466298595070839, 0.12424100935459137, -0.13907445967197418, -0.9824573397636414, -0.02806498110294342, -0.011041447520256042, 0.24561041593551636, 0.06553682649775257, 0.06690474149550485, 0.9933973222587561,0.06626024643433998,0.0961761474609375,-0.150115966796875,-0.736846923828125
20230421-1516,2023-04-21 15:16:49,u10, 175,100,movements,wr-su, lt, d,957778.7992880001, 0.12307734643185937, 0.1234462266076527, 0.12707979535458855, -1.4927386045455933, -0.3110722005367279, 0.07180190086364746, 0.12183261662721634, -0.12313293665647507, -0.9848833084106445, -0.01531112939119339, -0.07785578072071075, 0.12915515899658203, 0.0575452971959296, 0.06516819711669589, 0.9939552366856333,0.06704216605822669,0.1065216064453125,-0.20098876953125,-0.8557281494140625
20230421-1516,2023-04-21 15:16:49,u10, 176,100,movements,wr-su, lt, d,957778.809311, 0.11899733278467374, 0.11111291420410786, 0.12909358301949672, -0.9821761250495911, -0.44040170311927795, 0.030958065763115883, 0.1179846003651619, -0.1108844205737114, -0.9868050813674927, -0.01532357931137085, 0.005736149847507477, -0.049526095390319824, 0.051484600900653724, 0.06282351423606583, 0.9944017270843837,0.0675835193203539,0.1026611328125,-0.1051483154296875,-1.0363311767578125
20230421-1516,2023-04-21 15:16:49,u10, 177,100,movements,wr-su, lt, d,957778.8193330001, 0.11445886700268758, 0.10360372895459072, 0.1303903419579225, -0.5697898864746094, -0.42303842306137085, 0.058668654412031174, 0.11359671503305435, -0.10341848433017731, -0.988129734992981, -0.032359033823013306, 0.2174169421195984, -0.17047011852264404, 0.04786270436108368, 0.060367931993047234, 0.9947124850069436,0.06791044919226184,0.08123779296875,0.1139984130859375,-1.158599853515625
20230421-1516,2023-04-21 15:16:49,u10, 178,100,movements,wr-su, lt, d,957778.8293560001, 0.11022180197450121, 0.09899927178966281, 0.13170384182632494, -0.39719972014427185, -0.40607568621635437, 0.09915163367986679, 0.10946016013622284, -0.09883763641119003, -0.9890649914741516, -0.022607237100601196, 0.1843937188386917, -0.1946660876274109, 0.04567696165129049, 0.05814731425285164, 0.9949178998282631,0.068343522610176,0.08685302734375,0.0855560302734375,-1.1837310791015625
20230421-1516,2023-04-21 15:16:49,u10, 179,100,movements,wr-su, lt, d,957778.839379, 0.10557513986326794, 0.09565460395247471, 0.13328982740573198, -0.2911235988140106, -0.5043681263923645, 0.13606669008731842, 0.1048973947763443, -0.09550879895687103, -0.9898861646652222, 0.019858352839946747, 0.012211114168167114, -0.17731964588165283, 0.04412672045982509, 0.05576516394736541, 0.9950828255621288,0.06894373330428655,0.124755859375,-0.0832977294921875,-1.167205810546875
20230421-1516,2023-04-21 15:16:49,u10, 180,100,movements,wr-su, lt, d,957778.8494010001, 0.09972495904122997, 0.093559637472394, 0.13462055175401083, -0.15854263305664062, -0.6301212906837463, 0.06849697232246399, 0.09912431985139847, -0.09342320263385773, -0.9906798005104065, 0.09730195999145508, -0.015234582126140594, -0.066372811794281, 0.04325021171273817, 0.05281588332359066, 0.9952485068693288,0.06942784286812423,0.1964263916015625,-0.1086578369140625,-1.0570526123046875
20230421-1516,2023-04-21 15:16:49,u10, 181,100,movements,wr-su, lt, d,957778.859424, 0.09315880942437489, 0.09257484227691458, 0.13488280876460412, -0.024882519617676735, -0.6610144972801208, -0.021788740530610085, 0.09262578934431076, -0.09244266897439957, -0.991400420665741, 0.14509077370166779, 0.07191964238882065, 0.06976956129074097, 0.04298113020465385, 0.04952178096072737, 0.9954318538736505,0.0693946911098299,0.2377166748046875,-0.0205230712890625,-0.921630859375
20230421-1516,2023-04-21 15:16:49,u10, 182,100,movements,wr-su, lt, d,957778.8694460001, 0.08631239461216919, 0.09389989190786716, 0.13433551703770574, 0.2903103232383728, -0.7423146367073059, -0.07694786787033081, 0.08582550287246704, -0.09376196563243866, -0.9918884634971619, 0.1547291874885559, 0.07087384164333344, 0.08699649572372437, 0.04389083622556288, 0.0461451494390688, 0.9955817276764125,0.06900112827700706,0.2405548095703125,-0.02288818359375,-0.9048919677734375
20230421-1516,2023-04-21 15:16:49,u10, 183,100,movements,wr-su, lt, d,957778.879469, 0.07838211201560615, 0.09678515554798063, 0.13272766787014756, 0.31325411796569824, -0.8690742254257202, -0.19527919590473175, 0.07793541997671127, -0.09663411974906921, -0.9922640323638916, 0.17209500074386597, 0.016449227929115295, 0.0854036808013916, 0.045634895017134615, 0.042254455882186806, 0.9957395752017413,0.06807779864655365,0.250030517578125,-0.0801849365234375,-0.9068603515625
20230421-1516,2023-04-21 15:16:49,u10, 184,100,movements,wr-su, lt, d,957778.8894910001, 0.06982984260481445, 0.10062850140388103, 0.13022563114526928, 0.5161564350128174, -0.8704332113265991, -0.2203240990638733, 0.06942013651132584, -0.10045875608921051, -0.9925164580345154, 0.1323009431362152, 0.054178908467292786, 0.06035703420639038, 0.04788739656147288, 0.038060186495734116, 0.9958964389197233,0.06669676978273888,0.20172119140625,-0.0462799072265625,-0.932159423828125
20230421-1516,2023-04-21 15:16:49,u10, 185,100,movements,wr-su, lt, d,957778.899514, 0.06159911475918483, 0.10734047361644825, 0.1282257485742888, 0.8488398194313049, -0.8234473466873169, -0.07921299338340759, 0.06120586022734642, -0.10713446140289307, -0.9923588037490845, 0.07491769641637802, -0.047284431755542755, -0.04607808589935303, 0.051538732097357515, 0.03412248867209842, 0.995929989868504,0.06559494273028461,0.1361236572265625,-0.1544189453125,-1.0384368896484375
20230421-1516,2023-04-21 15:16:49,u10, 186,100,movements,wr-su, lt, d,957778.9095360001, 0.05311891155306583, 0.11733692903773417, 0.12753446328486637, 1.1250263452529907, -0.9033480286598206, 0.049839798361063004, 0.05272885784506798, -0.1170678660273552, -0.9917231202125549, 0.05771414935588837, -0.11858881264925003, -0.1348484754562378, 0.05680564460278763, 0.03019189353708034, 0.9957998856748025,0.065145918416944,0.110443115234375,-0.23565673828125,-1.1265716552734375
20230421-1516,2023-04-21 15:16:49,u10, 187,100,movements,wr-su, lt, d,957778.9195590001, 0.04318040872929173, 0.12901150560653274, 0.12778404525200235, 1.1727664470672607, -1.072096347808838, 0.10470070689916611, 0.042808253318071365, -0.12865392863750458, -0.9907651543617249, 0.07564562559127808, -0.19991353154182434, -0.10335105657577515, 0.06293898195179035, 0.025614456566851167, 0.9955630627524285,0.06508970406780325,0.1184539794921875,-0.3285675048828125,-1.0941162109375
20230421-1516,2023-04-21 15:16:49,u10, 188,100,movements,wr-su, lt, d,957778.929582, 0.031875401714372774, 0.14031923245142244, 0.12852192611288285, 1.073894739151001, -1.133559226989746, 0.12612716853618622, 0.03155676648020744, -0.13985921442508698, -0.9896684288978577, 0.0724470391869545, -0.23042577505111694, 0.045469820499420166, 0.06892758750071375, 0.02036615946816155, 0.9952827174971458,0.0651655363910345,0.10400390625,-0.3702850341796875,-0.9441986083984375
20230421-1516,2023-04-21 15:16:49,u10, 189,100,movements,wr-su, lt, d,957778.9396040001, 0.02074851638055844, 0.1504692917760156, 0.12946023887664532, 0.9393331408500671, -1.0602737665176392, 0.10419166833162308, 0.020512603223323822, -0.1499021351337433, -0.9884880185127258, 0.01813780888915062, -0.16476455330848694, 0.20888596773147583, 0.07433309509295134, 0.015184757698669102, 0.9949788810788366,0.06527659545133938,0.0386505126953125,-0.314666748046875,-0.77960205078125
20230421-1516,2023-04-21 15:16:49,u10, 190,100,movements,wr-su, lt, d,957778.949627, 0.010015996213311477, 0.1595083786857605, 0.13010856322277856, 0.8778847455978394, -1.0775749683380127, 0.047241032123565674, 0.009888682514429092, -0.158832848072052, -0.9872559905052185, -0.04431261122226715, -0.06914864480495453, 0.241024911403656, 0.07917562210305014, 0.010160632330071246, 0.9946743277025657,0.0651990935087934,-0.034423828125,-0.2279815673828125,-0.7462310791015625
20230421-1516,2023-04-21 15:16:49,u10, 191,100,movements,wr-su, lt, d,957778.9596490001, -0.00110669874577972, 0.16844088793813847, 0.13020622922759023, 0.9181848168373108, -1.1332027912139893, -0.011816906742751598, -0.0010910357814282179, -0.16764551401138306, -0.985846757888794, -0.08751685172319412, -0.06192292273044586, 0.22670674324035645, 0.08397857330594728, 0.004922446089555111, 0.9943474115003832,0.06478008865731366,-0.0886077880859375,-0.2295684814453125,-0.7591400146484375
20230421-1516,2023-04-21 15:16:49,u10, 192,100,movements,wr-su, lt, d,957778.969672, -0.012102211680348734, 0.1786491227243704, 0.13054000635189394, 1.1477117538452148, -1.028437614440918, 0.08988521993160248, -0.011909309774637222, -0.17770035564899445, -0.9840126037597656, -0.14267757534980774, -0.09862098097801208, 0.20323562622070312, 0.08940734928671348, -0.00019588602333503197, 0.9939093332672054,0.06442380917066406,-0.1545867919921875,-0.2763214111328125,-0.7807769775390625
20230421-1516,2023-04-21 15:16:49,u10, 193,100,movements,wr-su, lt, d,957778.9796940001, -0.022117863273647995, 0.19088770767329152, 0.13203177051109874, 1.226149559020996, -0.9045959711074829, 0.12563693523406982, -0.02171434834599495, -0.18973055481910706, -0.981596052646637, -0.1774892359972, -0.22874167561531067, 0.11053282022476196, 0.09581180956921904, -0.004698100143080131, 0.9932891479275766,0.06461210003540908,-0.1992034912109375,-0.4184722900390625,-0.871063232421875
20230421-1516,2023-04-21 15:16:49,u10, 194,100,movements,wr-su, lt, d,957778.989717, -0.0309732321006602, 0.20211481023021438, 0.13335265640578495, 1.0577170848846436, -0.833299458026886, 0.10327783226966858, -0.030337896198034286, -0.20074154436588287, -0.9791743755340576, -0.17026948928833008, -0.36416929960250854, 0.07843279838562012, 0.10167576694491927, -0.008651868380193847, 0.9926723325931701,0.06472022139114633,-0.2006072998046875,-0.564910888671875,-0.9007415771484375
20230421-1516,2023-04-21 15:16:49,u10, 195,100,movements,wr-su, lt, d,957778.9997400001, -0.040279686244198795, 0.21240878579886746, 0.13536274289412653, 1.0185043811798096, -0.988565981388092, 0.15126705169677734, -0.039363790303468704, -0.2108151614665985, -0.9767330288887024, -0.13263337314128876, -0.2073824107646942, -0.03733551502227783, 0.10709499216880232, -0.012811542494203791, 0.9920321661578418,0.06510513289932882,-0.1719970703125,-0.4181976318359375,-1.014068603515625
20230421-1516,2023-04-21 15:16:49,u10, 196,100,movements,wr-su, lt, d,957779.0097620001, -0.05124812492063883, 0.22234532773722845, 0.13406566411310672, 0.9034392833709717, -1.2190607786178589, -0.4865165948867798, -0.04996467009186745, -0.2205178141593933, -0.9741023778915405, -0.008034080266952515, 0.033231496810913086, -0.16295206546783447, 0.112363885530644, -0.017977034352034193, 0.9914595518106073,0.06371114902217935,-0.0579986572265625,-0.187286376953125,-1.137054443359375
20230421-1516,2023-04-21 15:16:49,u10, 197,100,movements,wr-su, lt, d,957779.019785, -0.062320425507927206, 0.23057338340898434, 0.12982050337601328, 0.7071916460990906, -1.1490068435668945, -0.3387170732021332, -0.0606318823993206, -0.22853577136993408, -0.9716455936431885, -0.10730644315481186, 0.39914435148239136, -0.16568350791931152, 0.11674096264788579, -0.023425324235395357, 0.9910211795985677,0.0608265398476811,-0.167938232421875,0.1706085205078125,-1.1373291015625
20230421-1516,2023-04-21 15:16:49,u10, 198,100,movements,wr-su, lt, d,957779.0298070001, -0.07270677088695462, 0.2369136539645489, 0.12722645864965373, 0.49064043164253235, -1.0583158731460571, -0.33002424240112305, -0.07061360031366348, -0.23470361530780792, -0.9694988131523132, -0.11163746565580368, 0.612465500831604, -0.06507760286331177, 0.12015732931363808, -0.028509901424184036, 0.9906019963135413,0.05879653128230219,-0.1822509765625,0.3777618408203125,-1.034576416015625
20230421-1516,2023-04-21 15:16:49,u10, 199,100,movements,wr-su, lt, d,957779.03983, -0.08227449904848916, 0.24011478156415353, 0.12331066156890866, 0.07535935938358307, -1.0300991535186768, -0.43352365493774414, -0.07982397079467773, -0.23781411349773407, -0.9680250883102417, -0.07987459748983383, 0.5574705600738525, -0.0121537446975708, 0.12195625632187491, -0.03337854944081047, 0.9903804498360055,0.05620477076571187,-0.159698486328125,0.3196563720703125,-0.9801788330078125
20230421-1516,2023-04-21 15:16:49,u10, 200,100,movements,wr-su, lt, d,957779.0498520001, -0.0915928726179652, 0.23917969504552455, 0.11923779855278326, -0.2984134256839752, -1.0432473421096802, -0.33951568603515625, -0.08886110037565231, -0.2369057536125183, -0.9674602746963501, -0.01959846168756485, 0.3861825466156006, 0.021598458290100098, 0.12167644662639437, -0.03827152844989895, 0.9903799190966924,0.053643866730258415,-0.10845947265625,0.1492767333984375,-0.94586181640625
20230421-1516,2023-04-21 15:16:49,u10, 201,100,movements,wr-su, lt, d,957779.059875, -0.10240797529685496, 0.23581772414628333, 0.11523667180201531, -0.4168761670589447, -1.2978665828704834, -0.38450703024864197, -0.09939973801374435, -0.23363815248012543, -0.9672294855117798, 0.1308175027370453, 0.1227831244468689, 0.061208367347717285, 0.12021361478881797, -0.043976552977569305, 0.9904561850130373,0.05110087354488383,0.0314178466796875,-0.1108551025390625,-0.9060211181640625
20230421-1516,2023-04-21 15:16:49,u10, 202,100,movements,wr-su, lt, d,957779.0698980001, -0.11511235184245724, 0.2323281871747439, 0.11068843231670651, -0.3613540530204773, -1.4301778078079224, -0.412930428981781, -0.11177239567041397, -0.23024378716945648, -0.9666926860809326, 0.2131364345550537, -0.08948883414268494, 0.11459612846374512, 0.11869450852908353, -0.05064856959245022, 0.9904662590465206,0.048195146217847734,0.1013641357421875,-0.319732666015625,-0.8520965576171875
20230421-1516,2023-04-21 15:16:49,u10, 203,100,movements,wr-su, lt, d,957779.07992, -0.12833621039247212, 0.2297042188305212, 0.1055653189959811, -0.25990861654281616, -1.420056939125061, -0.5126871466636658, -0.12462255358695984, -0.22768951952457428, -0.9657260179519653, 0.15385830402374268, -0.14363303780555725, 0.20907318592071533, 0.11756542995075471, -0.057579268480854755, 0.9903742477158403,0.044964335640567746,0.02923583984375,-0.3713226318359375,-0.75665283203125
20230421-1516,2023-04-21 15:16:49,u10, 204,100,movements,wr-su, lt, d,957779.0899430001, -0.14068933932801891, 0.22887884294069075, 0.10013914269873, -0.03666354715824127, -1.2847976684570312, -0.482633113861084, -0.13656878471374512, -0.22688575088977814, -0.9642986059188843, 0.015871673822402954, -0.04671953618526459, 0.24072682857513428, 0.11725937787143219, -0.06403850117306896, 0.9901617029482273,0.041582352283877216,-0.120697021484375,-0.2736053466796875,-0.72357177734375
20230421-1516,2023-04-21 15:16:49,u10, 205,100,movements,wr-su, lt, d,957779.0999650001, -0.15216109549414017, 0.2299558031880312, 0.09559423658034007, 0.08132973313331604, -1.227937936782837, -0.44177043437957764, -0.14758463203907013, -0.22793449461460114, -0.9624264240264893, -0.05531156063079834, 0.08479183912277222, 0.04291653633117676, 0.1178697869523247, -0.06995352251468834, 0.9898090769879903,0.038616209019407106,-0.2028961181640625,-0.1431427001953125,-0.9195098876953125
20230421-1516,2023-04-21 15:16:50,u10, 206,100,movements,wr-su, lt, d,957779.109988, -0.16364744463372216, 0.23049603425201287, 0.09085850584066577, -0.1761806309223175, -1.2943131923675537, -0.49711254239082336, -0.1586093306541443, -0.22846046090126038, -0.9605461359024048, -0.03871740400791168, 0.15160201489925385, -0.21845471858978271, 0.11817722810875293, -0.07590171208286582, 0.9894481932275715,0.035572467122965835,-0.19732666015625,-0.0768585205078125,-1.1790008544921875
20230421-1516,2023-04-21 15:16:50,u10, 207,100,movements,wr-su, lt, d,957779.1200100001, -0.17569588018185844, 0.22625192410337144, 0.08480103884548001, -0.8719251155853271, -1.378584623336792, -0.4988730847835541, -0.17033857107162476, -0.22432655096054077, -0.9595115184783936, 0.007038921117782593, 0.09911298751831055, -0.42325520515441895, 0.11604359761342145, -0.08232936553699616, 0.9893067062741777,0.03205942030074861,-0.163299560546875,-0.125213623046875,-1.3827667236328125
20230421-1516,2023-04-21 15:16:50,u10, 208,100,movements,wr-su, lt, d,957779.130033, -0.18818228908464754, 0.21551992537642004, 0.07749371506428994, -1.484265685081482, -1.430291771888733, -0.5442056059837341, -0.18274569511413574, -0.21385535597801208, -0.9596196413040161, 0.06049221754074097, 0.05078473687171936, -0.3375146985054016, 0.11061377664858653, -0.08918948932195703, 0.9894502816276414,0.028244979822563753,-0.12225341796875,-0.1630706787109375,-1.2971343994140625
20230421-1516,2023-04-21 15:16:50,u10, 209,100,movements,wr-su, lt, d,957779.1400550001, -0.20081260096123893, 0.1991420770360433, 0.06743730596194883, -2.0890026092529297, -1.4999715089797974, -0.7537955045700073, -0.19552356004714966, -0.19782844185829163, -0.9605386257171631, 0.12457011640071869, 0.027937129139900208, -0.07138276100158691, 0.10221222055004953, -0.09635016174457098, 0.9898084384741456,0.023417711958810143,-0.070953369140625,-0.169891357421875,-1.03192138671875
20230421-1516,2023-04-21 15:16:50,u10, 210,100,movements,wr-su, lt, d,957779.150078, -0.21356629565645957, 0.17863279400218435, 0.054426790175428494, -2.3699162006378174, -1.5190123319625854, -0.8748759031295776, -0.20857392251491547, -0.17768429219722748, -0.9617303013801575, 0.1358809918165207, 0.12279848754405975, 0.057952284812927246, 0.09154529422299854, -0.10370294718956152, 0.990232655576381,0.017444008027112545,-0.07269287109375,-0.0548858642578125,-0.903778076171875
20230421-1516,2023-04-21 15:16:50,u10, 211,100,movements,wr-su, lt, d,957779.1601010001, -0.22628336075810954, 0.158572916122194, 0.040697080928361995, -2.060844898223877, -1.4767801761627197, -0.8734010457992554, -0.2215423285961151, -0.15790918469429016, -0.9622804522514343, 0.11396780610084534, 0.12043365836143494, 0.0292971134185791, 0.0809707099755244, -0.11092121667310438, 0.9904616754561417,0.011213280396853586,-0.107574462890625,-0.0374755859375,-0.9329833984375
20230421-1516,2023-04-21 15:16:50,u10, 212,100,movements,wr-su, lt, d,957779.170123, -0.23915608744578842, 0.14307474148245178, 0.028122774752308993, -1.51436448097229, -1.4803099632263184, -0.8223423957824707, -0.2344624102115631, -0.1425871104001999, -0.961611270904541, 0.08410222828388214, -0.012747317552566528, 0.03430420160293579, 0.07263203560898969, -0.11797855731704247, 0.9903415195378727,0.005399000583170982,-0.150360107421875,-0.15533447265625,-0.92730712890625
20230421-1516,2023-04-21 15:16:50,u10, 213,100,movements,wr-su, lt, d,957779.1801460001, -0.2525864766832833, 0.1328113734810306, 0.01759609178876423, -0.9818860292434692, -1.4765276908874512, -0.6895944476127625, -0.24770838022232056, -0.13242127001285553, -0.9597422480583191, 0.04935930669307709, -0.10674494504928589, -0.10460406541824341, 0.06693158106182069, -0.12509614799847024, 0.9898842833045355,0.0003507815505175917,-0.1983489990234375,-0.239166259765625,-1.0643463134765625
20230421-1516,2023-04-21 15:16:50,u10, 214,100,movements,wr-su, lt, d,957779.1901680001, -0.26599752557548, 0.1266488316885424, 0.009611561090518942, -0.6346018314361572, -1.3935377597808838, -0.5327534675598145, -0.2607664465904236, -0.1263105273246765, -0.9571031928062439, -0.03945028781890869, -0.1320359706878662, -0.21587038040161133, 0.0633585208386942, -0.1320382773986402, 0.9892108870505846,-0.003637781947042209,-0.3002166748046875,-0.2583465576171875,-1.1729736328125
20230421-1516,2023-04-21 15:16:50,u10, 215,100,movements,wr-su, lt, d,957779.200191, -0.27877152424405693, 0.12222853040232587, 0.0031977140422886135, -0.5820335745811462, -1.3222579956054688, -0.465722918510437, -0.27312183380126953, -0.12192441523075104, -0.9542216062545776, -0.18094927072525024, -0.09554380923509598, -0.04239088296890259, 0.060705528432576795, -0.13857860300853417, 0.9884650211605828,-0.0069052129451185485,-0.454071044921875,-0.21746826171875,-0.996612548828125
20230421-1516,2023-04-21 15:16:50,u10, 216,100,movements,wr-su, lt, d,957779.2102130001, -0.29090187283567487, 0.11790625288680555, -0.0027069028650209192, -0.5718799829483032, -1.2354538440704346, -0.41022422909736633, -0.28482499718666077, -0.11763325333595276, -0.9513344168663025, -0.290431410074234, -0.014080576598644257, 0.05982440710067749, 0.05810096104013533, -0.14476560457251053, 0.9877092382750075,-0.009876462924784717,-0.57525634765625,-0.1317138671875,-0.891510009765625
20230421-1516,2023-04-21 15:16:50,u10, 217,100,movements,wr-su, lt, d,957779.220236, -0.3021737713535443, 0.11398167437459494, -0.007993570725813878, -0.45165932178497314, -1.1416230201721191, -0.367470383644104, -0.29566511511802673, -0.11373502761125565, -0.94849693775177, -0.33356162905693054, 0.01998506486415863, 0.0843459963798523, 0.05571007192303164, -0.1504922329586776, 0.9869608200232692,-0.012517965534110507,-0.6292266845703125,-0.09375,-0.8641510009765625
20230421-1516,2023-04-21 15:16:50,u10, 218,100,movements,wr-su, lt, d,957779.2302590001, -0.31283670183383927, 0.11156397665686452, -0.012538980291494368, -0.2937051057815552, -1.0963116884231567, -0.3471184968948364, -0.30584561824798584, -0.11133269220590591, -0.9455493092536926, -0.29628151655197144, -0.026972927153110504, 0.0891650915145874, 0.05409618250602295, -0.1558812090041934, 0.9861812751281227,-0.014868391198024898,-0.6021270751953125,-0.1383056640625,-0.85638427734375
20230421-1516,2023-04-21 15:16:50,u10, 219,100,movements,wr-su, lt, d,957779.240281, -0.3234945535665345, 0.11025470470880096, -0.016703815687399308, -0.21880784630775452, -1.1239566802978516, -0.35903680324554443, -0.3159516453742981, -0.11003146320581436, -0.9423733949661255, -0.1970641314983368, -0.09461937099695206, 0.028448283672332764, 0.05303539226787594, -0.1612468488441649, 0.9853395829384941,-0.017103341910690312,-0.5130157470703125,-0.20465087890625,-0.9139251708984375
20230421-1516,2023-04-21 15:16:50,u10, 220,100,movements,wr-su, lt, d,957779.2503040001, -0.3345513336552361, 0.10938949550565966, -0.020832386758440853, -0.21794098615646362, -1.1769471168518066, -0.3531501293182373, -0.3263828754425049, -0.10917146503925323, -0.938912034034729, -0.0790126621723175, -0.12460840493440628, -0.03499537706375122, 0.05216987494723555, -0.16680014326098394, 0.9844192472602529,-0.01935672108895831,-0.4053955078125,-0.2337799072265625,-0.973907470703125
20230421-1516,2023-04-21 15:16:50,u10, 221,100,movements,wr-su, lt, d,957779.260326, -0.3461586201987474, 0.10825392019608229, -0.02481880729044732, -0.2617608308792114, -1.2241628170013428, -0.3182862401008606, -0.33730068802833557, -0.10804260522127151, -0.935176432132721, -0.0018564462661743164, -0.1081438884139061, -0.04004323482513428, 0.051154206484663275, -0.17261233119550293, 0.9834250739325424,-0.02152206932430969,-0.3391571044921875,-0.2161865234375,-0.9752197265625
20230421-1516,2023-04-21 15:16:50,u10, 222,100,movements,wr-su, lt, d,957779.2703490001, -0.3581547684806488, 0.10619638159275596, -0.028915522796422993, -0.4271146357059479, -1.251478672027588, -0.3072255849838257, -0.34857186675071716, -0.10599688440561295, -0.9312691688537598, 0.015884429216384888, -0.03496377915143967, 0.008661806583404541, 0.04964754227935858, -0.17860719570316147, 0.9823821489839605,-0.023658530522501893,-0.3326873779296875,-0.140960693359375,-0.922607421875
20230421-1516,2023-04-21 15:16:50,u10, 223,100,movements,wr-su, lt, d,957779.2803710001, -0.37022928274874445, 0.10247347253387068, -0.03359444386441, -0.569042444229126, -1.2495092153549194, -0.2941395938396454, -0.359931081533432, -0.10229422152042389, -0.9273540377616882, -0.01630491018295288, 0.06402520835399628, 0.03952139616012573, 0.04724475365242287, -0.1846372793991739, 0.9813283601855679,-0.025912943990886193,-0.3762359619140625,-0.03826904296875,-0.8878326416015625
20230421-1516,2023-04-21 15:16:50,u10, 224,100,movements,wr-su, lt, d,957779.290394, -0.3822603170111961, 0.09808202492817311, -0.038402272985583324, -0.5770612359046936, -1.2412548065185547, -0.2730364203453064, -0.3712258040904999, -0.0979248434305191, -0.9233645796775818, -0.05450969934463501, 0.09180609881877899, 0.05538368225097656, 0.04447681411540481, -0.19062930926349891, 0.9802501385173229,-0.028138471080655713,-0.4257354736328125,-0.0061187744140625,-0.86798095703125
20230421-1516,2023-04-21 15:16:50,u10, 225,100,movements,wr-su, lt, d,957779.3004170001, -0.3942278042745348, 0.09401638733698145, -0.04303431408092493, -0.5169551372528076, -1.2307565212249756, -0.26890167593955994, -0.3823990523815155, -0.09387794882059097, -0.9192159175872803, -0.07267910242080688, 0.03653545677661896, 0.02273160219192505, 0.04186134307504218, -0.19656979124335167, 0.9791277030808815,-0.030276127365178165,-0.455078125,-0.057342529296875,-0.896484375
20230421-1516,2023-04-21 15:16:50,u10, 226,100,movements,wr-su, lt, d,957779.310439, -0.40592290534276915, 0.09105172478145249, -0.04696392749280336, -0.3069007098674774, -1.1712218523025513, -0.21381817758083344, -0.3932311534881592, -0.09092596918344498, -0.9149326086044312, -0.0876496434211731, 0.007750332355499268, -0.04257160425186157, 0.03983576300996928, -0.20235314431836673, 0.9779739446849898,-0.03214501788432507,-0.4808807373046875,-0.0831756591796875,-0.9575042724609375
20230421-1516,2023-04-21 15:16:50,u10, 227,100,movements,wr-su, lt, d,957779.3204620001, -0.41709795836608304, 0.09036671430080066, -0.04931614276019549, -0.010047268122434616, -1.1064966917037964, -0.1658308207988739, -0.4034559428691864, -0.09024377167224884, -0.9105379581451416, -0.045976459980010986, -0.002956882119178772, -0.0938870906829834, 0.03907637705913843, -0.20785588726799073, 0.9768061195452401,-0.0334454918675528,-0.449432373046875,-0.09320068359375,-1.004425048828125
20230421-1516,2023-04-21 15:16:50,u10, 228,100,movements,wr-su, lt, d,957779.330484, -0.42794041239825836, 0.09192207729062274, -0.0502272489872672, 0.20799586176872253, -1.0700403451919556, -0.1265380084514618, -0.4132457673549652, -0.09179268032312393, -0.9059812426567078, 0.049476176500320435, -0.009464621543884277, -0.07108473777770996, 0.03955649133125868, -0.21317753590223973, 0.9756107438942454,-0.03426534648296267,-0.36376953125,-0.10125732421875,-0.9770660400390625
20230421-1516,2023-04-21 15:16:50,u10, 229,100,movements,wr-su, lt, d,957779.3405070001, -0.43841316437936556, 0.0947069020984527, -0.05009320276827984, 0.27594655752182007, -1.011863112449646, -0.08537554740905762, -0.4226008951663971, -0.09456539154052734, -0.9013688564300537, 0.12311658263206482, -0.048226334154605865, -0.126783549785614, 0.040748693526412964, -0.21830048908143052, 0.9744125094866803,-0.03470746882348261,-0.2994842529296875,-0.142791748046875,-1.0281524658203125
20230421-1516,2023-04-21 15:16:50,u10, 230,100,movements,wr-su, lt, d,957779.350529, -0.4481988987550148, 0.09680681984172779, -0.05004471435846846, 0.08191689848899841, -0.9371171593666077, -0.08888319879770279, -0.43131405115127563, -0.09665568917989731, -0.8970093727111816, 0.09787899255752563, -0.0658351257443428, -0.14264816045761108, 0.041606287559798345, -0.22307897727989096, 0.973278701382047,-0.035114600797321135,-0.33343505859375,-0.1624908447265625,-1.0396575927734375
20230421-1516,2023-04-21 15:16:50,u10, 231,100,movements,wr-su, lt, d,957779.3605520001, -0.4572007587142792, 0.09648304395963034, -0.05129663054476101, -0.25521591305732727, -0.8881615996360779, -0.11236575245857239, -0.4393850266933441, -0.09633342176675797, -0.8931185007095337, 0.04740196466445923, -0.006541304290294647, -0.05642062425613403, 0.04114794377990601, -0.22748098245625192, 0.9722511175880831,-0.03587366228211352,-0.3919830322265625,-0.102874755859375,-0.9495391845703125
20230421-1516,2023-04-21 15:16:50,u10, 232,100,movements,wr-su, lt, d,957779.3705750001, -0.4657526055591046, 0.09336978293644235, -0.05438975086905229, -0.5461348295211792, -0.8904306292533875, -0.16639862954616547, -0.4471392035484314, -0.09323417395353317, -0.8895919919013977, 0.06862965226173401, 0.03607478737831116, -0.03968346118927002, 0.03912307816088455, -0.23167519711032172, 0.9712941531615142,-0.03719462234006497,-0.378509521484375,-0.057159423828125,-0.9292755126953125
20230421-1516,2023-04-21 15:16:50,u10, 233,100,movements,wr-su, lt, d,957779.3805962917, -0.4739416639347905, 0.08807864980055119, -0.05917622462690552, -0.8237320184707642, -0.8416316509246826, -0.20817598700523376, -0.4546278119087219, -0.08796481043100357, -0.8863270878791809, 0.10312634706497192, 0.034528568387031555, -0.037775635719299316, 0.03583768247534862, -0.23569497365550549, 0.9703801779721118,-0.039059927357247066,-0.35150146484375,-0.053436279296875,-0.924102783203125
20230421-1516,2023-04-21 15:16:50,u10, 234,100,movements,wr-su, lt, d,957779.3906192917, -0.4815880554789186, 0.08127973888656634, -0.06524299422919994, -0.920795202255249, -0.7833635807037354, -0.23252525925636292, -0.4616580307483673, -0.08119027316570282, -0.8833345770835876, 0.10202360153198242, 0.029997073113918304, -0.04850435256958008, 0.03166394064352003, -0.23943707449218513, 0.9695146549425845,-0.04133228981989675,-0.3596343994140625,-0.0511932373046875,-0.9318389892578125
20230421-1516,2023-04-21 15:16:50,u10, 235,100,movements,wr-su, lt, d,957779.4006412918, -0.4887250609464216, 0.07455010649265294, -0.07124857687597083, -0.7722600102424622, -0.7306084632873535, -0.20057833194732666, -0.4681965112686157, -0.0744810700416565, -0.8804797530174255, 0.09609565138816833, 0.008517347276210785, -0.06912040710449219, 0.02752530491478009, -0.24290427157281533, 0.9686813848498617,-0.043545076063219765,-0.372100830078125,-0.0659637451171875,-0.9496002197265625
20230421-1516,2023-04-21 15:16:50,u10, 236,100,movements,wr-su, lt, d,957779.4106642917, -0.49523118922959863, 0.07004297360261712, -0.075593086798108, -0.4257177710533142, -0.6212132573127747, -0.13128286600112915, -0.4740698039531708, -0.06998571753501892, -0.877701461315155, 0.085947185754776, -0.02599204331636429, -0.08302241563796997, 0.02466634908161241, -0.2460505104634605, 0.9678887627919105,-0.04518818392397493,-0.38812255859375,-0.095977783203125,-0.960723876953125
20230421-1516,2023-04-21 15:16:50,u10, 237,100,movements,wr-su, lt, d,957779.4206862918, -0.5008099318698428, 0.06790121864515394, -0.077885511610274, -0.18914979696273804, -0.5269482731819153, -0.0728643387556076, -0.47902974486351013, -0.0678490549325943, -0.8751725554466248, 0.07073503732681274, -0.03420170396566391, -0.06995677947998047, 0.023218638607239214, -0.2487460813114745, 0.9671922771328237,-0.04610178656064127,-0.408294677734375,-0.10205078125,-0.94512939453125
20230421-1516,2023-04-21 15:16:50,u10, 238,100,movements,wr-su, lt, d,957779.4307092917, -0.5056760885709606, 0.06679209868298518, -0.07919196775839447, -0.16188035905361176, -0.46406787633895874, -0.0474947951734066, -0.48331892490386963, -0.06674244999885559, -0.8728964924812317, 0.05408915877342224, 0.0023503825068473816, -0.09562456607818604, 0.02240598277755016, -0.2510970555835787, 0.9665774191764406,-0.04665170945915037,-0.429229736328125,-0.06439208984375,-0.9685211181640625
20230421-1516,2023-04-21 15:16:50,u10, 239,100,movements,wr-su, lt, d,957779.4407322917, -0.5100181217906228, 0.06509670729211685, -0.08060117163569479, -0.27333661913871765, -0.42315027117729187, -0.03815804794430733, -0.48715904355049133, -0.06505074352025986, -0.8708871603012085, 0.024085283279418945, 0.048723869025707245, -0.08358055353164673, 0.021306786534755342, -0.25318461110558155, 0.96603235535911,-0.04716844980007474,-0.46307373046875,-0.016326904296875,-0.9544677734375
20230421-1516,2023-04-21 15:16:50,u10, 240,100,movements,wr-su, lt, d,957779.4507542917, -0.5140627700830176, 0.06216794202732362, -0.08286173184215298, -0.47301748394966125, -0.4137623608112335, -0.07157272845506668, -0.49076905846595764, -0.06212790310382843, -0.8690718412399292, 0.001434922218322754, 0.08486352115869522, -0.0533372163772583, 0.019508127575976, -0.25511472968733084, 0.9655248331358749,-0.04793282919565575,-0.4893341064453125,0.022735595703125,-0.9224090576171875
20230421-1516,2023-04-21 15:16:50,u10, 241,100,movements,wr-su, lt, d,957779.4607772917, -0.5182011341012706, 0.057600078126417674, -0.0863536336551081, -0.6226248145103455, -0.45112812519073486, -0.07917512208223343, -0.49449679255485535, -0.05756823346018791, -0.8672708868980408, -0.02132660150527954, 0.0983702540397644, -0.023582935333251953, 0.016754563773892003, -0.25706778062620955, 0.9650009199911256,-0.04907634440005087,-0.5158233642578125,0.040802001953125,-0.8908538818359375
20230421-1516,2023-04-21 15:16:50,u10, 242,100,movements,wr-su, lt, d,957779.4707992917, -0.5226497116717076, 0.05295509903927358, -0.0897445731771966, -0.4960287809371948, -0.4712589681148529, -0.0446549654006958, -0.49847811460494995, -0.052930351346731186, -0.8652848601341248, -0.012828677892684937, 0.05729438737034798, -0.004740655422210693, 0.013964583130323241, -0.2591573951739661, 0.9644309237703553,-0.05015214991565474,-0.5113067626953125,0.004364013671875,-0.870025634765625
20230421-1516,2023-04-21 15:16:50,u10, 243,100,movements,wr-su, lt, d,957779.4808222917, -0.5272731402779567, 0.04982587804463739, -0.09192473267720806, -0.25250378251075745, -0.46968263387680054, -0.014680125750601292, -0.5025542378425598, -0.04980526491999626, -0.8631098866462708, 0.009069740772247314, -0.044463515281677246, -0.0023227930068969727, 0.012054729840866649, -0.26134220610918435, 0.9638315056227544,-0.05082953828314457,-0.4934844970703125,-0.094268798828125,-0.8654327392578125
20230421-1516,2023-04-21 15:16:50,u10, 244,100,movements,wr-su, lt, d,957779.4908442918, -0.5318906021722041, 0.04851092634140256, -0.09257826107561336, -0.0545257106423378, -0.4533417522907257, 0.032986730337142944, -0.5065670013427734, -0.04849190264940262, -0.8608358502388, 0.009283065795898438, -0.09889271855354309, 0.019588351249694824, 0.011217533354467036, -0.2635455261358568, 0.9632324421857252,-0.05100014028526559,-0.497283935546875,-0.1473846435546875,-0.84124755859375
20230421-1516,2023-04-21 15:16:50,u10, 245,100,movements,wr-su, lt, d,957779.5008672917, -0.5363249586596356, 0.048239776451443755, -0.09215915061446117, 0.03987884148955345, -0.42989102005958557, 0.06211332231760025, -0.5103859901428223, -0.04822107031941414, -0.8585923314094543, 0.011972904205322266, -0.10218478739261627, 0.008952558040618896, 0.011029511141936746, -0.2656730552442246, 0.9626612058995765,-0.050787431202036756,-0.4984130859375,-0.1504058837890625,-0.849639892578125
