SessionID,LoggingTime,UID,RecNo,Hertz,Activity,MoveType,Wrist,Side,TimeStamp,DMRoll,DMPitch,DMYaw,DMRotX,DMRotY,DMRotZ,DMGrvX,DMGrvY,DMGrvZ,DMUAccelX,DMUAccelY,DMUAccelZ,DMQuatX,DMQuatY,DMQuatW,DMQuatZ,AccelroX,AceelroY,AceelroZ
20230215-1528,2023-02-15 15:28:48Z,u01, 1,100,movements,el-ex, lt, nd,281049.690840375, -1.0773850732890855, -0.14334543764531732, -0.08576533172938777, 0.25764307379722595, 0.20894266664981842, -0.11191847920417786, -0.8716892600059509, 0.14285503327846527, -0.4687752425670624, -0.005019664764404297, 0.052381157875061035, -0.04445412755012512, -0.08334947969992589, -0.5085914343660847, 0.8569641584490459,4.472333961502706e-18,-0.86517333984375,0.1964569091796875,-0.5115203857421875
20230215-1528,2023-02-15 15:28:48Z,u01, 2,100,movements,el-ex, lt, nd,281049.70086337504, -1.0750242888667865, -0.1411369267310509, -0.08382195337896772, 0.2915073037147522, 0.2009100317955017, -0.09581327438354492, -0.8708555102348328, 0.1406688243150711, -0.470980703830719, 0.012335062026977539, 0.060731932520866394, -0.03408518433570862, -0.08191255022258404, -0.5077400719734737, 0.8576072365197426,0.00016862524206663382,-0.876708984375,0.1952362060546875,-0.5132293701171875
20230215-1528,2023-02-15 15:28:48Z,u01, 3,100,movements,el-ex, lt, nd,281049.71088537504, -1.0728262741340666, -0.13897036886075692, -0.08164697537981361, 0.2840477228164673, 0.16805462539196014, -0.08166906982660294, -0.8700839877128601, 0.13852348923683167, -0.4730382263660431, 0.020474612712860107, 0.08510933816432953, -0.01966804265975952, -0.08043500174088415, -0.50696262019649, 0.8582068057372697,0.00045738264219698677,-0.8585205078125,0.2014007568359375,-0.50506591796875
20230215-1528,2023-02-15 15:28:49Z,u01, 4,100,movements,el-ex, lt, nd,281049.720908375, -1.0711596141006698, -0.13690703879950553, -0.0796117857005101, 0.2731782793998718, 0.10916493833065033, -0.08778182417154312, -0.8695433735847473, 0.13647975027561188, -0.4746236205101013, 0.01233518123626709, 0.08808384835720062, -0.006470739841461182, -0.07903720881566473, -0.5064003395000376, 0.8586683304023853,0.0007368242902494569,-0.849609375,0.2236328125,-0.492706298828125
20230215-1528,2023-02-15 15:28:49Z,u01, 5,100,movements,el-ex, lt, nd,281049.730930375, -1.0699714905492232, -0.13481474670904398, -0.07763973423075993, 0.264870822429657, 0.07559925317764282, -0.09922616928815842, -0.869227409362793, 0.13440674543380737, -0.47579246759414673, 0.013453543186187744, 0.08629637956619263, 0.014763414859771729, -0.07764295915586514, -0.5060388667742434, 0.8590082613083383,0.0010027434040129379,-0.857208251953125,0.2245635986328125,-0.4810943603515625
20230215-1528,2023-02-15 15:28:49Z,u01, 6,100,movements,el-ex, lt, nd,281049.740953375, -1.0689343254136565, -0.1325893520992292, -0.07577419967798102, 0.277121365070343, 0.08659677952528, -0.10905909538269043, -0.8689935207366943, 0.1322012096643448, -0.4768364429473877, 0.03375798463821411, 0.051438331604003906, 0.024947404861450195, -0.07621857321055615, -0.5057395623287658, 0.8593117722519368,0.0011964395135059581,-0.85577392578125,0.220703125,-0.461029052734375
20230215-1528,2023-02-15 15:28:49Z,u01, 7,100,movements,el-ex, lt, nd,281049.750975375, -1.0678323043924856, -0.1301673843129508, -0.0737384665845579, 0.3001648783683777, 0.0753457173705101, -0.12215157598257065, -0.8687455058097839, 0.12980011105537415, -0.47794675827026367, 0.03840804100036621, 0.013190016150474548, 0.015773296356201172, -0.0746668937138196, -0.5054220811547092, 0.8596344167555667,0.0014123338742092373,-0.835235595703125,0.1836395263671875,-0.4518890380859375
20230215-1528,2023-02-15 15:28:49Z,u01, 8,100,movements,el-ex, lt, nd,281049.760998375, -1.0669294104324036, -0.12763659000479327, -0.07166358400526351, 0.30651649832725525, 0.05273468419909477, -0.12002796679735184, -0.8685985207557678, 0.12729030847549438, -0.47888803482055664, 0.0655437707901001, 0.025389134883880615, 0.053320348262786865, -0.07305841282626406, -0.5051915047509327, 0.8599077681810657,0.0016264347340234845,-0.8303375244140625,0.1429901123046875,-0.4621734619140625
20230215-1528,2023-02-15 15:28:49Z,u01, 9,100,movements,el-ex, lt, nd,281049.771020375, -1.06620138704785, -0.12509924186221774, -0.06943730075346247, 0.3263189494609833, 0.03708488494157791, -0.10625630617141724, -0.8685296177864075, 0.12477319687604904, -0.4796748757362366, 0.08183223009109497, 0.0034464076161384583, 0.05743366479873657, -0.07140857539358442, -0.5050379980247137, 0.8601359407909082,0.0019117729452503682,-0.8030548095703125,0.152679443359375,-0.425567626953125
20230215-1528,2023-02-15 15:28:49Z,u01, 10,100,movements,el-ex, lt, nd,281049.781042375, -1.0656576158075044, -0.12268675426315612, -0.06696486623321457, 0.33098480105400085, 0.00888200756162405, -0.07552928477525711, -0.8685294985771179, 0.12237920612096786, -0.48029130697250366, 0.0942070484161377, 0.024425603449344635, 0.049795061349868774, -0.06974981385806402, -0.5049646597323493, 0.8603139293600588,0.002342472809091693,-0.7866973876953125,0.1282196044921875,-0.4222412109375
20230215-1528,2023-02-15 15:28:49Z,u01, 11,100,movements,el-ex, lt, nd,281049.79106537503, -1.0652958474420031, -0.12044064582111129, -0.06413357634436846, 0.3672446608543396, -0.010413926094770432, -0.04746430739760399, -0.8685939908027649, 0.12014967203140259, -0.4807373583316803, 0.11488616466522217, 0.06649583578109741, 0.07010814547538757, -0.0680714590173866, -0.5049728610056674, 0.860441556310029,0.0029770395469504384,-0.774322509765625,0.1468048095703125,-0.4304962158203125
20230215-1528,2023-02-15 15:28:49Z,u01, 12,100,movements,el-ex, lt, nd,281049.80108737503, -1.0653657596258144, -0.11888092546367032, -0.06202228659961287, 0.1500907689332962, -0.05114857107400894, -0.039611443877220154, -0.8687905073165894, 0.11860110610723495, -0.48076680302619934, 0.1367959976196289, 0.07262202352285385, 0.09157615900039673, -0.06686866273997041, -0.505118977383739, 0.8604481832907132,0.003491322943775292,-0.7537078857421875,0.1866455078125,-0.4106292724609375
20230215-1528,2023-02-15 15:28:49Z,u01, 13,100,movements,el-ex, lt, nd,281049.81111037504, -1.06582826252917, -0.1181052590604958, -0.06134010885333442, 0.06606721878051758, -0.05403384193778038, -0.031618632376194, -0.8690930604934692, 0.11783087998628616, -0.48040932416915894, 0.10458201169967651, 0.010953307151794434, 0.051271140575408936, -0.066362535049693, -0.5053625922503444, 0.8603439371295709,0.003603025878672191,-0.73199462890625,0.19122314453125,-0.389190673828125
20230215-1528,2023-02-15 15:28:49Z,u01, 14,100,movements,el-ex, lt, nd,281049.82113237504, -1.0663044411079292, -0.1174489468464751, -0.06081143045276482, 0.09166232496500015, -0.053704939782619476, -0.026951441541314125, -0.8693891763687134, 0.11717911064624786, -0.48003268241882324, 0.11034083366394043, 0.020287320017814636, 0.02501562237739563, -0.06594634325605084, -0.5056033441951243, 0.8602340873832683,0.003679295368054314,-0.7645111083984375,0.1287841796875,-0.42913818359375
20230215-1528,2023-02-15 15:28:49Z,u01, 15,100,movements,el-ex, lt, nd,281049.831155375, -1.0669231312054588, -0.11699476120081857, -0.06030444147833448, 0.029119646176695824, -0.08541519939899445, -0.00405531469732523, -0.8697326183319092, 0.1167280450463295, -0.47952041029930115, 0.12484431266784668, 0.0418718159198761, 0.01336437463760376, -0.06562204807610594, -0.50589875165769, 0.8600847803457121,0.003802138803867542,-0.7590484619140625,0.1374664306640625,-0.45501708984375
20230215-1528,2023-02-15 15:28:49Z,u01, 16,100,movements,el-ex, lt, nd,281049.841177375, -1.0680176145152738, -0.11703622496282237, -0.06025246025367117, -0.010567579418420792, -0.1354602575302124, 0.010219228453934193, -0.8702526092529297, 0.1167692244052887, -0.4785658121109009, 0.09341245889663696, -0.0094999298453331, 0.04021131992340088, -0.06562459122147529, -0.5063699263139675, 0.8598068453443806,0.003870963358621983,-0.7448883056640625,0.158599853515625,-0.466156005859375
20230215-1528,2023-02-15 15:28:49Z,u01, 17,100,movements,el-ex, lt, nd,281049.851200375, -1.069689723942516, -0.11722142687351919, -0.06019357838843252, 0.0003201458603143692, -0.20145978033542633, 0.02497633546590805, -0.8710326552391052, 0.11695315688848495, -0.47709962725639343, 0.051483154296875, -0.001581445336341858, 0.030902087688446045, -0.06568581284526911, -0.5070853595617617, 0.8593798999698365,0.0039983631010583505,-0.7768402099609375,0.107269287109375,-0.4383544921875
20230215-1528,2023-02-15 15:28:49Z,u01, 18,100,movements,el-ex, lt, nd,281049.861222375, -1.0679831564314903, -0.14416626326223675, -0.05950323238783664, -0.015217268839478493, -0.2905009686946869, 0.050467848777770996, -0.8671403527259827, 0.14366738498210907, -0.47689327597618103, 0.03089773654937744, -0.03026406466960907, 0.03495299816131592, -0.07706795842552625, -0.5055827245288066, 0.8592574431432655,0.0111010105824538,-0.819549560546875,0.1153717041015625,-0.446197509765625
20230215-1528,2023-02-15 15:28:49Z,u01, 19,100,movements,el-ex, lt, nd,281049.871245375, -1.073259714765917, -0.1691023211399703, -0.05987526241926932, -0.07032293826341629, -0.3951978087425232, 0.07521553337574005, -0.8662264943122864, 0.16829754412174225, -0.47045472264289856, 0.0059511661529541016, -0.07813334465026855, 0.04713010787963867, -0.08779571443787143, -0.5070153340076411, 0.8572750090029266,0.017521559455798637,-0.83624267578125,0.1134033203125,-0.4419403076171875
20230215-1528,2023-02-15 15:28:49Z,u01, 20,100,movements,el-ex, lt, nd,281049.881267375, -1.0803421221741565, -0.18497104930153416, -0.0607135199043664, -0.10935449600219727, -0.48192232847213745, 0.11392191797494888, -0.8670713901519775, 0.1839180737733841, -0.4629915952682495, -0.027246177196502686, -0.0981484204530716, 0.027704089879989624, -0.0947108357471741, -0.5094448520701743, 0.8550035611544871,0.02155471095959474,-0.8602752685546875,0.0901641845703125,-0.4233245849609375
20230215-1528,2023-02-15 15:28:49Z,u01, 21,100,movements,el-ex, lt, nd,281049.89129037503, -1.0857192106906284, -0.18678517577349812, -0.06140052206673812, -0.19051864743232727, -0.5649424195289612, 0.14077219367027283, -0.8692517876625061, 0.18570095300674438, -0.4581662714481354, -0.02856004238128662, -0.10243374109268188, 0.023946940898895264, -0.09559993010267655, -0.5116419796788004, 0.8535805093539763,0.02198459108459439,-0.894317626953125,0.0857696533203125,-0.4352874755859375
20230215-1528,2023-02-15 15:28:49Z,u01, 22,100,movements,el-ex, lt, nd,281049.90131237503, -1.091836566500597, -0.18911753068717124, -0.06266864589160774, -0.233989417552948, -0.6063140630722046, 0.15662279725074768, -0.8716515898704529, 0.18799223005771637, -0.4526394307613373, -0.043051719665527344, -0.08823026716709137, 0.027453243732452393, -0.0968482895457268, -0.5141018369720035, 0.8519510451417014,0.022342100630549006,-0.8978118896484375,0.0832672119140625,-0.4342193603515625
20230215-1528,2023-02-15 15:28:49Z,u01, 23,100,movements,el-ex, lt, nd,281049.91133437504, -1.0981609098591498, -0.19165191982612528, -0.0639875782396921, -0.23009097576141357, -0.6001209020614624, 0.17304487526416779, -0.8740698099136353, 0.19048082828521729, -0.4468994736671448, -0.06899964809417725, -0.07658922672271729, -0.025070130825042725, -0.09819140695752453, -0.5166320853485602, 0.8502542883242558,0.022748779841095065,-0.914703369140625,0.099761962890625,-0.4251861572265625
20230215-1528,2023-02-15 15:28:49Z,u01, 24,100,movements,el-ex, lt, nd,281049.92135737505, -1.10422520568833, -0.19430857016683487, -0.0653237810400009, -0.26737895607948303, -0.5520729422569275, 0.17348375916481018, -0.876308798789978, 0.19308815896511078, -0.4413614571094513, -0.06630289554595947, -0.06911049783229828, -0.045607566833496094, -0.09959174965914196, -0.5190382952526286, 0.848612785445929,0.023176034524999348,-0.9430694580078125,0.1138916015625,-0.4719696044921875
20230215-1528,2023-02-15 15:28:49Z,u01, 25,100,movements,el-ex, lt, nd,281049.931379375, -1.109827028321849, -0.19687927199964664, -0.06723688228979077, -0.2749038338661194, -0.48276254534721375, 0.12182975560426712, -0.8783199191093445, 0.19560985267162323, -0.4362233877182007, -0.05051302909851074, -0.10247018933296204, -0.045725464820861816, -0.101109583171263, -0.5212150844025778, 0.8470937045600656,0.02332171987278829,-0.9426116943359375,0.1239776611328125,-0.486968994140625
20230215-1528,2023-02-15 15:28:49Z,u01, 26,100,movements,el-ex, lt, nd,281049.941402375, -1.114340167265741, -0.19905552246808234, -0.06891141695392952, -0.20903456211090088, -0.35641899704933167, 0.11380298435688019, -0.8798955678939819, 0.19774359464645386, -0.43206632137298584, -0.058794617652893066, -0.18724553287029266, -0.11979836225509644, -0.10241118409985402, -0.5229519958464844, 0.8458633475044856,0.02341692702693477,-0.9288330078125,0.0931396484375,-0.4819488525390625
20230215-1528,2023-02-15 15:28:49Z,u01, 27,100,movements,el-ex, lt, nd,281049.951424375, -1.117626056637537, -0.2007731724451457, -0.07015724769767714, -0.16230441629886627, -0.25078871846199036, 0.09391572326421738, -0.8810038566589355, 0.1994270384311676, -0.4290234446525574, -0.015022695064544678, -0.1645301729440689, -0.1486591100692749, -0.10342168065934587, -0.5242062946353911, 0.8449608756381168,0.02351410538431867,-0.938690185546875,0.010498046875,-0.5518646240234375
20230215-1528,2023-02-15 15:28:49Z,u01, 28,100,movements,el-ex, lt, nd,281049.961447375, -1.1198947382065931, -0.20234965712310327, -0.07120409879601987, -0.1635819375514984, -0.16349242627620697, 0.10288285464048386, -0.8816908597946167, 0.2009716033935547, -0.42688608169555664, -0.0129624605178833, -0.1558055877685547, -0.11954641342163086, -0.10433236790809589, -0.5250444955125761, 0.844325611323983,0.0236081134633471,-0.896026611328125,0.0348968505859375,-0.5776824951171875
20230215-1528,2023-02-15 15:28:49Z,u01, 29,100,movements,el-ex, lt, nd,281049.971469375, -1.1213568495589359, -0.2040336400016148, -0.0720960596656438, -0.13874152302742004, -0.09191224724054337, 0.12652379274368286, -0.8820079565048218, 0.20262093842029572, -0.42544883489608765, 0.014835774898529053, -0.15769906342029572, -0.07903724908828735, -0.10525680922980325, -0.5255440821168903, 0.8438958053496537,0.02375574275543471,-0.8946533203125,0.045166015625,-0.5464324951171875
20230215-1528,2023-02-15 15:28:49Z,u01, 30,100,movements,el-ex, lt, nd,281049.981492375, -1.1220217617916897, -0.2058284084505402, -0.07255166245212469, -0.0976279154419899, -0.027288513258099556, 0.1541338413953781, -0.8819615244865417, 0.2043781578540802, -0.42470377683639526, 0.0396154522895813, -0.1235676258802414, -0.02582716941833496, -0.10612227246675575, -0.5257244274928661, 0.843665857391756,0.024075994050531582,-0.8671722412109375,0.044921875,-0.504486083984375
20230215-1528,2023-02-15 15:28:49Z,u01, 31,100,movements,el-ex, lt, nd,281049.991514375, -1.1221019604854638, -0.20774106930430555, -0.07278012746957574, -0.11338481307029724, 0.017232082784175873, 0.1688036024570465, -0.8816418051719666, 0.20625007152557373, -0.4244627356529236, 0.03354305028915405, -0.10485541820526123, -0.024496614933013916, -0.10698431081071154, -0.525664327807081, 0.8435825388945665,0.02449269560068216,-0.84234619140625,0.080810546875,-0.450531005859375
20230215-1528,2023-02-15 15:28:49Z,u01, 32,100,movements,el-ex, lt, nd,281050.00153737504, -1.1217408749975761, -0.2098641130914226, -0.0730408482646643, -0.11357789486646652, 0.06788753718137741, 0.19444558024406433, -0.8810919523239136, 0.20832699537277222, -0.42458999156951904, 0.022571563720703125, -0.13389462232589722, -0.02365216612815857, -0.10794849244137321, -0.5254066365697149, 0.8436074032190062,0.024928026904699058,-0.8480987548828125,0.1013946533203125,-0.4489593505859375
20230215-1528,2023-02-15 15:28:49Z,u01, 33,100,movements,el-ex, lt, nd,281050.01155937504, -1.120797745957909, -0.21216589773221456, -0.0730942677831167, -0.0938241183757782, 0.11995153874158859, 0.21099254488945007, -0.8802571296691895, 0.21057772636413574, -0.4252111315727234, 0.03885698318481445, -0.15915560722351074, -0.02733403444290161, -0.1089406831264982, -0.5249060558163993, 0.8437754996750771,0.025466238386462635,-0.8585205078125,0.074432373046875,-0.4482421875
20230215-1528,2023-02-15 15:28:49Z,u01, 34,100,movements,el-ex, lt, nd,281050.021582375, -1.1193634789310691, -0.21451549640891465, -0.07305338083078985, -0.11312245577573776, 0.16334189474582672, 0.21252413094043732, -0.8791986107826233, 0.21287405490875244, -0.4262561500072479, 0.04269665479660034, -0.15019096434116364, -0.044736891984939575, -0.10993501525228311, -0.5242005542519048, 0.8440678127276063,0.02602900622026309,-0.841400146484375,0.051422119140625,-0.452545166015625
20230215-1528,2023-02-15 15:28:49Z,u01, 35,100,movements,el-ex, lt, nd,281050.031604375, -1.1175294707520584, -0.2169765898012422, -0.07312722462291127, -0.11569274216890335, 0.2046629637479782, 0.22475607693195343, -0.8779417276382446, 0.21527808904647827, -0.42763715982437134, 0.03902888298034668, -0.15926308929920197, -0.030965715646743774, -0.11101223126659124, -0.5233141508430964, 0.8444605587066972,0.026549244019043666,-0.8365020751953125,0.06268310546875,-0.4709930419921875
20230215-1528,2023-02-15 15:28:49Z,u01, 36,100,movements,el-ex, lt, nd,281050.041626375, -1.1154648265751785, -0.21958561024837864, -0.07333932863945795, -0.14932261407375336, 0.2128806859254837, 0.2192518562078476, -0.876549482345581, 0.21782520413398743, -0.4292004108428955, 0.040642619132995605, -0.17915944755077362, -0.010267943143844604, -0.11219172646629119, -0.5223148540791143, 0.8449077826080583,0.02703529926630249,-0.8389129638671875,0.0560150146484375,-0.4586029052734375
20230215-1528,2023-02-15 15:28:49Z,u01, 37,100,movements,el-ex, lt, nd,281050.051649375, -1.1134564406186656, -0.22213967357420789, -0.07378177800727523, -0.15710695087909698, 0.20434871315956116, 0.19748450815677643, -0.8751837015151978, 0.22031722962856293, -0.4307129383087158, 0.0019233226776123047, -0.14220750331878662, -0.011196821928024292, -0.11340828109997957, -0.5213272390433166, 0.845343142838591,0.027410229356101757,-0.835906982421875,0.038665771484375,-0.4394683837890625
20230215-1528,2023-02-15 15:28:49Z,u01, 38,100,movements,el-ex, lt, nd,281050.061671375, -1.1116863397517789, -0.22459540444776496, -0.07445551078164216, -0.18010307848453522, 0.17388853430747986, 0.18379613757133484, -0.8739323616027832, 0.2227119505405426, -0.4320204257965088, -0.008971631526947021, -0.1336921602487564, -0.007051229476928711, -0.11464096069512017, -0.520429865098466, 0.8457212802351248,0.027672649438637023,-0.873260498046875,0.0781097412109375,-0.4419097900390625
20230215-1528,2023-02-15 15:28:49Z,u01, 39,100,movements,el-ex, lt, nd,281050.071694375, -1.1103288440340313, -0.226938367203571, -0.07538670156018296, -0.18464429676532745, 0.14337323606014252, 0.15132959187030792, -0.8728751540184021, 0.2249954491853714, -0.4329732656478882, -0.01324838399887085, -0.1608017534017563, 0.009572446346282959, -0.1158876359222494, -0.5196955095597897, 0.8459980276652925,0.027818239110193838,-0.882904052734375,0.089019775390625,-0.4390716552734375
20230215-1528,2023-02-15 15:28:49Z,u01, 40,100,movements,el-ex, lt, nd,281050.081716375, -1.1092508311766756, -0.228868309031583, -0.07622385313904434, -0.13025988638401031, 0.11191464960575104, 0.11955621093511581, -0.8720175623893738, 0.22687548398971558, -0.43371984362602234, -0.039481401443481445, -0.17150135338306427, -0.01606348156929016, -0.1169321426229145, -0.5191020636686067, 0.8462157057490879,0.027909595391655936,-0.8861236572265625,0.0641937255859375,-0.42340087890625
20230215-1528,2023-02-15 15:28:49Z,u01, 41,100,movements,el-ex, lt, nd,281050.091739375, -1.1084522555942435, -0.23033216537774598, -0.07685107693386421, -0.12369333207607269, 0.07130543887615204, 0.08757191896438599, -0.8713727593421936, 0.22830092906951904, -0.43426746129989624, -0.045604169368743896, -0.18591201305389404, -0.02882152795791626, -0.11772208107724808, -0.5186596017160442, 0.8463750304997726,0.027982581637142467,-0.9114990234375,0.0553741455078125,-0.4497833251953125
20230215-1528,2023-02-15 15:28:49Z,u01, 42,100,movements,el-ex, lt, nd,281050.10176137503, -1.1081912819809943, -0.23153287616461218, -0.077660370677517, -0.11759549379348755, 0.017018765211105347, 0.05876449868083, -0.8710134029388428, 0.22946976125240326, -0.4343721866607666, -0.05490511655807495, -0.20284318923950195, -0.01777622103691101, -0.11844088620897052, -0.5184454270523337, 0.8464073353257657,0.027940544778918722,-0.9169769287109375,0.042388916015625,-0.4630889892578125
20230215-1528,2023-02-15 15:28:49Z,u01, 43,100,movements,el-ex, lt, nd,281050.11178437504, -1.0736491724083967, -0.12560257148155227, -0.07229481254536295, -0.1128164529800415, -0.03111174702644348, 0.03792153671383858, -0.8720226287841797, 0.12527258694171906, -0.4731629490852356, -0.07368654012680054, -0.10014136135578156, 0.020144730806350708, -0.0723424515022526, -0.5081191807724406, 0.8582424625059003,0.0010803108135740978,-0.9259185791015625,0.0266265869140625,-0.4521484375
20230215-1528,2023-02-15 15:28:49Z,u01, 44,100,movements,el-ex, lt, nd,281050.12180637504, -1.0839516066422938, -0.09551131655382908, -0.07426142011096361, -0.11614859849214554, -0.06717360764741898, 0.016598138958215714, -0.8797851204872131, 0.09536616504192352, -0.4657072126865387, -0.053396522998809814, -0.04044979065656662, 0.021157652139663696, -0.05999500958197413, -0.5133682860883404, 0.8560386453020605,-0.0071585316710898175,-0.945709228515625,0.0251312255859375,-0.4530181884765625
20230215-1528,2023-02-15 15:28:49Z,u01, 45,100,movements,el-ex, lt, nd,281050.131829375, -1.0913295171107555, -0.09206496681485994, -0.0757007010675807, -0.07332363724708557, -0.08227000385522842, 0.0019406324718147516, -0.8834835886955261, 0.09193496406078339, -0.4593525528907776, -0.0527651309967041, -0.03146437555551529, -0.006452500820159912, -0.05892401540218275, -0.5165768862970346, 0.8541691780449285,-0.0084471357348486,-0.9331817626953125,0.0549163818359375,-0.444549560546875
20230215-1528,2023-02-15 15:28:49Z,u01, 46,100,movements,el-ex, lt, nd,281050.141851375, -1.0969685421419966, -0.09177780637397165, -0.07654509322097425, -0.020604461431503296, -0.07177368551492691, -0.009102963842451572, -0.88608318567276, 0.09164901822805405, -0.454375296831131, -0.02767401933670044, -0.022602997720241547, -0.02678009867668152, -0.05904454173826335, -0.5189663743239387, 0.8527083817555404,-0.008715915302454802,-0.936248779296875,0.0604705810546875,-0.4658050537109375
20230215-1528,2023-02-15 15:28:49Z,u01, 47,100,movements,el-ex, lt, nd,281050.151874375, -1.103976746519581, -0.08713001602647073, -0.07709741853189706, 0.028397968038916588, -0.0787341296672821, -0.010571431368589401, -0.8896166086196899, 0.08701981604099274, -0.4483412206172943, -0.005280792713165283, -0.01617325097322464, -0.027443110942840576, -0.057245645883594896, -0.5220654365672313, 0.8509238519783112,-0.0099638433191398,-0.91375732421875,0.0690460205078125,-0.4811553955078125
20230215-1528,2023-02-15 15:28:49Z,u01, 48,100,movements,el-ex, lt, nd,281050.161896375, -1.1061755166841907, -0.08193097003308646, -0.076927000285297, 0.03707427904009819, -0.07798817753791809, -0.003256260184571147, -0.8909926414489746, 0.08183933794498444, -0.4465807378292084, -0.010878026485443115, -0.025015607476234436, -0.012418925762176514, -0.05500588268682639, -0.523148142620131, 0.8503910796762776,-0.01119538135453064,-0.8948974609375,0.0708465576171875,-0.4757843017578125
20230215-1528,2023-02-15 15:28:49Z,u01, 49,100,movements,el-ex, lt, nd,281050.171918375, -1.1061057623335524, -0.07556342442755001, -0.07645971851194462, 0.04942581057548523, -0.08952099084854126, 0.0053802914917469025, -0.8914093375205994, 0.0754915326833725, -0.4468674063682556, -0.0018249750137329102, -0.0015626922249794006, 0.00330960750579834, -0.05218070773953694, -0.5233005517531785, 0.8504547062570277,-0.012672565519448073,-0.9018707275390625,0.05682373046875,-0.4589996337890625
20230215-1528,2023-02-15 15:28:49Z,u01, 50,100,movements,el-ex, lt, nd,281050.181941375, -1.1087417227688567, -0.067584968716531, -0.07614412564971108, 0.03514727205038071, -0.07573407888412476, 0.02341947890818119, -0.8930948376655579, 0.06753353029489517, -0.4447704553604126, -0.004701733589172363, -0.004316367208957672, -0.00641670823097229, -0.048730338526251145, -0.5246333248535968, 0.8498075385582482,-0.014571404929331505,-0.8932342529296875,0.0739288330078125,-0.4435577392578125
20230215-1528,2023-02-15 15:28:49Z,u01, 51,100,movements,el-ex, lt, nd,281050.191963375, -1.1125349795091655, -0.06011189329380849, -0.075990155168719, 0.017345771193504333, -0.04121125116944313, 0.03720903396606445, -0.895203173160553, 0.06007569655776024, -0.44159045815467834, 0.008942246437072754, 0.00562865287065506, -0.0016467869281768799, -0.04555048736068305, -0.5264313064872934, 0.8488383883085132,-0.016387994305299858,-0.897796630859375,0.0632171630859375,-0.4511871337890625
20230215-1528,2023-02-15 15:28:49Z,u01, 52,100,movements,el-ex, lt, nd,281050.20198637503, -1.1158454606144046, -0.05926496436312259, -0.07567914132042165, 0.05716349184513092, 0.008875882253050804, 0.0514548160135746, -0.8967055678367615, 0.05923027917742729, -0.43864670395851135, 0.009696900844573975, 0.010609209537506104, -0.015393853187561035, -0.045136887435501406, -0.527862959163587, 0.8479706635440727,-0.016405048981010993,-0.886260986328125,0.065704345703125,-0.4432373046875
20230215-1528,2023-02-15 15:28:49Z,u01, 53,100,movements,el-ex, lt, nd,281050.21200837503, -1.1141904611602542, -0.059190898770278916, -0.07469042458775031, 0.0850883275270462, 0.0719778835773468, 0.06609240174293518, -0.8959822654724121, 0.05915634334087372, -0.4401320815086365, 0.016984522342681885, 0.01584061235189438, -0.047065794467926025, -0.04483130991640812, -0.5271850819989917, 0.8484153814479694,-0.01604256714483619,-0.8870086669921875,0.0698394775390625,-0.45404052734375
20230215-1528,2023-02-15 15:28:49Z,u01, 54,100,movements,el-ex, lt, nd,281050.22203137504, -1.109212401400991, -0.06019884393145985, -0.07334761911980293, 0.08938614279031754, 0.12604191899299622, 0.08128920197486877, -0.8937263488769531, 0.0601624920964241, -0.44456008076667786, 0.019458770751953125, 0.022418081760406494, -0.040272653102874756, -0.044866357664762775, -0.5250780570924684, 0.8497325401686597,-0.015318024152292024,-0.878997802734375,0.0749969482421875,-0.4871978759765625
20230215-1528,2023-02-15 15:28:49Z,u01, 55,100,movements,el-ex, lt, nd,281050.232053375, -1.1045575541418857, -0.06136786854478857, -0.0718757624107637, 0.11292761564254761, 0.17888303101062775, 0.09206743538379669, -0.8915839195251465, 0.06132935732603073, -0.4486835300922394, 0.01263195276260376, 0.018397822976112366, -0.03126645088195801, -0.04494233427185244, -0.5231046053282642, 0.8509594000533484,-0.01448930709858929,-0.874267578125,0.08258056640625,-0.484832763671875
20230215-1528,2023-02-15 15:28:49Z,u01, 56,100,movements,el-ex, lt, nd,281050.242076375, -1.1020271621922482, -0.0611548599295473, -0.07034150210324838, 0.1332683116197586, 0.214114248752594, 0.08745776861906052, -0.890457272529602, 0.06111674755811691, -0.4509439766407013, 0.002762019634246826, 0.026895951479673386, -0.03233233094215393, -0.04443291244678483, -0.5220667800224862, 0.8516321690883206,-0.013948643859239102,-0.8789520263671875,0.0797271728515625,-0.479949951171875
20230215-1528,2023-02-15 15:28:49Z,u01, 57,100,movements,el-ex, lt, nd,281050.252098375, -1.100396892876354, -0.06228709475564176, -0.06873230799843652, 0.14649486541748047, 0.2355140894651413, 0.07971204817295074, -0.8896586894989014, 0.06224682554602623, -0.45236343145370483, -0.010884463787078857, 0.030816536396741867, -0.03237783908843994, -0.044483759382560016, -0.5213822792134524, 0.8520637266762214,-0.013003097011044596,-0.8876953125,0.0880126953125,-0.4832763671875
20230215-1528,2023-02-15 15:28:49Z,u01, 58,100,movements,el-ex, lt, nd,281050.262121375, -1.098331154694694, -0.06229355011832909, -0.06702291485775795, 0.16038911044597626, 0.23342163860797882, 0.06944262981414795, -0.8887220025062561, 0.06225327029824257, -0.4542000889778137, -0.02183091640472412, 0.023638464510440826, -0.02330845594406128, -0.044028164671035985, -0.5205395983746337, 0.8526126402974162,-0.012318630295357048,-0.900543212890625,0.0930633544921875,-0.4847412109375
20230215-1528,2023-02-15 15:28:49Z,u01, 59,100,movements,el-ex, lt, nd,281050.272143375, -1.0967441564051466, -0.0624493654824356, -0.06533527872731965, 0.158983513712883, 0.21057012677192688, 0.06286946684122086, -0.8879914283752441, 0.06240878254175186, -0.45560547709465027, -0.023538053035736084, 0.021087322384119034, -0.007254600524902344, -0.043646066697416865, -0.5198964127269177, 0.8530347757073093,-0.011593120310375581,-0.910552978515625,0.0858917236328125,-0.477508544921875
20230215-1528,2023-02-15 15:28:49Z,u01, 60,100,movements,el-ex, lt, nd,281050.282166375, -1.0948211377535897, -0.06281868566220827, -0.06373447868353857, 0.14045776426792145, 0.17045998573303223, 0.04798240214586258, -0.8870930075645447, 0.06277737766504288, -0.45730161666870117, -0.02326148748397827, 0.026623867452144623, 0.008540689945220947, -0.04337684556588754, -0.5191027229697104, 0.8535413115432705,-0.010855733089012214,-0.911529541015625,0.08349609375,-0.462860107421875
20230215-1528,2023-02-15 15:28:49Z,u01, 61,100,movements,el-ex, lt, nd,281050.292188375, -1.090501607386784, -0.06363053729961629, -0.0623878142658566, 0.07485540211200714, 0.1242634579539299, 0.03165905922651291, -0.8850640058517456, 0.06358760595321655, -0.4611055254936218, -0.02939516305923462, 0.025203287601470947, 0.029373347759246826, -0.043351512143046105, -0.5172696422818666, 0.854663383587474,-0.010163260724768598,-0.9103546142578125,0.0894012451171875,-0.448760986328125
20230215-1528,2023-02-15 15:28:49Z,u01, 62,100,movements,el-ex, lt, nd,281050.302210375, -1.0868517378333196, -0.06522713413275454, -0.0616445761861755, 0.042322494089603424, 0.09925797581672668, 0.002962434431537986, -0.8832840919494629, 0.06518089026212692, -0.4642849564552307, -0.030595242977142334, 0.017887964844703674, 0.04295927286148071, -0.04382345445679822, -0.5156908245047844, 0.8556003227488272,-0.009511350066850933,-0.914459228515625,0.0887908935546875,-0.431732177734375
20230215-1528,2023-02-15 15:28:49Z,u01, 63,100,movements,el-ex, lt, nd,281050.31223337504, -1.0845030900120394, -0.06606910213352421, -0.061163379849841146, 0.06438558548688889, 0.10793428868055344, -0.01317613571882248, -0.8821424841880798, 0.06602104753255844, -0.46633243560791016, -0.034742891788482666, 0.009693071246147156, 0.004769325256347656, -0.04404842942942105, -0.5146780772474024, 0.8562025163192439,-0.009139408388900096,-0.91387939453125,0.08306884765625,-0.42132568359375
20230215-1528,2023-02-15 15:28:49Z,u01, 64,100,movements,el-ex, lt, nd,281050.32225537504, -1.0823581968041922, -0.06687868802403939, -0.06044939829042704, 0.10291406512260437, 0.1326284557580948, -0.03369233012199402, -0.8810927271842957, 0.06682884693145752, -0.4681982100009918, -0.014064133167266846, 0.009068377315998077, -0.024553894996643066, -0.044201582759246495, -0.5137578379135441, 0.8567519617934102,-0.008672122380793049,-0.9168853759765625,0.075714111328125,-0.4615631103515625
20230215-1528,2023-02-15 15:28:49Z,u01, 65,100,movements,el-ex, lt, nd,281050.332278375, -1.0805733483222904, -0.06736032208414224, -0.05959250939586667, 0.12638893723487854, 0.13910898566246033, -0.04922055825591087, -0.8802271485328674, 0.06730939447879791, -0.4697548747062683, -0.0020055174827575684, 0.02314472198486328, -0.03142005205154419, -0.044180217154988044, -0.5130016342449989, 0.8572105098589543,-0.008220343767163964,-0.8951568603515625,0.075897216796875,-0.4927520751953125
20230215-1528,2023-02-15 15:28:49Z,u01, 66,100,movements,el-ex, lt, nd,281050.342300375, -1.0795255641305839, -0.06713440813866976, -0.05869113973674868, 0.13415338099002838, 0.13562025129795074, -0.056634265929460526, -0.8797478079795837, 0.06708399206399918, -0.4706840217113495, -0.0023779869079589844, 0.031518302857875824, -0.011386901140213013, -0.04384815817181394, -0.5125771369812179, 0.8574842804350661,-0.007915123481749999,-0.882232666015625,0.0904541015625,-0.5011749267578125
20230215-1528,2023-02-15 15:28:49Z,u01, 67,100,movements,el-ex, lt, nd,281050.352323375, -1.0793046838181894, -0.06672644998703002, -0.05791313768949904, 0.12680061161518097, 0.122182197868824, -0.06366924196481705, -0.8796679377555847, 0.06667694449424744, -0.4708912670612335, 0.009001433849334717, 0.03828827291727066, 0.006261110305786133, -0.043473202523747596, -0.5125080035107559, 0.8575468104353361,-0.0076912623327301905,-0.8821258544921875,0.098602294921875,-0.4820709228515625
20230215-1528,2023-02-15 15:28:49Z,u01, 68,100,movements,el-ex, lt, nd,281050.362345375, -1.0799228478387395, -0.06668707173632717, -0.057240699256384524, 0.11260675638914108, 0.09401208162307739, -0.059810325503349304, -0.8799611330032349, 0.06663765758275986, -0.470348596572876, 0.008485972881317139, 0.03927361220121384, 0.012340784072875977, -0.04328631063321077, -0.5127884473055064, 0.8573911292632789,-0.007399681973531261,-0.87066650390625,0.1049652099609375,-0.464630126953125
20230215-1528,2023-02-15 15:28:49Z,u01, 69,100,movements,el-ex, lt, nd,281050.372368375, -1.0819832215187148, -0.0669673857417427, -0.056878277552186364, 0.06834104657173157, 0.06116785109043121, -0.05270615220069885, -0.8809118270874023, 0.06691734492778778, -0.468525767326355, 0.01135927438735962, 0.027748189866542816, 0.02525794506072998, -0.04332078452801624, -0.5136734563294225, 0.8568617861659327,-0.007127589096444583,-0.8714752197265625,0.1059112548828125,-0.4580078125
20230215-1528,2023-02-15 15:28:49Z,u01, 70,100,movements,el-ex, lt, nd,281050.382390375, -1.0844650462602525, -0.067056433150934, -0.056775339480457016, 0.05515999719500542, 0.03837518393993378, -0.04503651335835457, -0.8820666074752808, 0.0670061931014061, -0.466335266828537, 0.007875382900238037, 0.031336717307567596, 0.0339011549949646, -0.04334118431499214, -0.5147367431412397, 0.8562233633760878,-0.007006764913567919,-0.8695526123046875,0.09466552734375,-0.443267822265625
20230215-1528,2023-02-15 15:28:49Z,u01, 71,100,movements,el-ex, lt, nd,281050.392413375, -1.0851627356631213, -0.06676441549377489, -0.056588155825135746, 0.049109406769275665, 0.023687319830060005, -0.04444199055433273, -0.8824090957641602, 0.0667148232460022, -0.46572887897491455, 0.008080482482910156, 0.022381246089935303, 0.015670835971832275, -0.04317057254058333, -0.5150454987993568, 0.8560465168164475,-0.006986965451152042,-0.8741912841796875,0.0983428955078125,-0.43243408203125
20230215-1528,2023-02-15 15:28:49Z,u01, 72,100,movements,el-ex, lt, nd,281050.402435375, -1.0840267666646535, -0.06658496785579558, -0.05627105638247789, 0.0452938973903656, 0.016109028831124306, -0.033986952155828476, -0.8818899989128113, 0.06653577834367752, -0.4667365550994873, 0.011879682540893555, 0.019294917583465576, 0.006043136119842529, -0.043008266500962726, -0.514569737958418, 0.8563412631526893,-0.006922024967090864,-0.87432861328125,0.0890960693359375,-0.4500579833984375
20230215-1528,2023-02-15 15:28:49Z,u01, 73,100,movements,el-ex, lt, nd,281050.41245737503, -1.0822776750233631, -0.06731928624756366, -0.05593369765167601, 0.038916196674108505, 0.005402054637670517, -0.029650796204805374, -0.8810288906097412, 0.06726845353841782, -0.46825528144836426, 0.010087788105010986, 0.006446763873100281, 0.008935213088989258, -0.04322974882601357, -0.5138127543022618, 0.8567868737232431,-0.006625869148951333,-0.8700103759765625,0.0858306884765625,-0.460693359375
20230215-1528,2023-02-15 15:28:49Z,u01, 74,100,movements,el-ex, lt, nd,281050.42248037504, -1.0816115114418257, -0.06852132871936169, -0.055612282885781114, 0.056371890008449554, -0.004707038402557373, -0.028587929904460907, -0.8806447386741638, 0.06846772134304047, -0.468803733587265, 0.007094383239746094, 0.005033873021602631, 0.008140861988067627, -0.04365947700433137, -0.513509476797785, 0.8569500803780851,-0.006192936593708124,-0.870941162109375,0.0737152099609375,-0.459320068359375
20230215-1528,2023-02-15 15:28:49Z,u01, 75,100,movements,el-ex, lt, nd,281050.43250237504, -1.081621110061203, -0.06989199449797842, -0.0552252886242927, 0.055264756083488464, -0.015527461655437946, -0.03319959342479706, -0.8805655837059021, 0.0698351040482521, -0.4687507450580597, 0.0026969313621520996, 0.005253396928310394, -0.0005943179130554199, -0.04414675953452932, -0.513493611670642, 0.8569382300123797,-0.005673864179561937,-0.8735504150390625,0.0735015869140625,-0.460662841796875
20230215-1528,2023-02-15 15:28:49Z,u01, 76,100,movements,el-ex, lt, nd,281050.442525375, -1.0820140322101715, -0.07125880835606806, -0.054992943286312976, 0.036302514374256134, -0.014899222180247307, -0.03061499260365963, -0.8806646466255188, 0.07119851559400558, -0.46835950016975403, 0.0048711299896240234, 0.007185898721218109, 0.008490025997161865, -0.04467307905117319, -0.513638559048804, 0.8568270770704223,-0.005213481615614946,-0.87786865234375,0.0750885009765625,-0.4693450927734375
20230215-1528,2023-02-15 15:28:49Z,u01, 77,100,movements,el-ex, lt, nd,281050.452547375, -1.0830064224178202, -0.07203976380644392, -0.054875774138007954, 0.039832498878240585, -0.011116468347609043, -0.0341818742454052, -0.8810796141624451, 0.07197746634483337, -0.467459112405777, 0.00046437978744506836, -0.005311809480190277, 0.00618588924407959, -0.04497961951803739, -0.5140498842224226, 0.8565659549041311,-0.00493974689484734,-0.87579345703125,0.0783843994140625,-0.459869384765625
20230215-1528,2023-02-15 15:28:49Z,u01, 78,100,movements,el-ex, lt, nd,281050.462570375, -1.08444710298725, -0.0728453156003616, -0.054880854765559324, 0.03196844831109047, -0.0011208255309611559, -0.04550936073064804, -0.8817006349563599, 0.07278090715408325, -0.4661619961261749, -0.008420825004577637, -0.004055313766002655, -0.007074117660522461, -0.045328915394924965, -0.5146496783775056, 0.8561886029317523,-0.0047015415372573775,-0.880615234375,0.0666656494140625,-0.461273193359375
20230215-1528,2023-02-15 15:28:49Z,u01, 79,100,movements,el-ex, lt, nd,281050.472592375, -1.0849633273567518, -0.07309720691692938, -0.054809750180042485, 0.03384814411401749, 0.00016787809727247804, -0.04170919209718704, -0.8819249272346497, 0.07303212583065033, -0.4656982123851776, -0.010714292526245117, -0.0030400529503822327, -0.011062681674957275, -0.04541950786478274, -0.5148669353911993, 0.8560537794903045,-0.004594346256458288,-0.8901214599609375,0.0687255859375,-0.473236083984375
20230215-1528,2023-02-15 15:28:49Z,u01, 80,100,movements,el-ex, lt, nd,281050.482615375, -1.0849200024741046, -0.07319810025703828, -0.05470830851088395, 0.025641348212957382, -0.010457069613039494, -0.04194488003849983, -0.8818981647491455, 0.07313275337219238, -0.46573296189308167, -0.007506072521209717, -0.006131410598754883, -0.013179391622543335, -0.04543643147075326, -0.5148485768031901, 0.856064211749305,-0.004525848633759242,-0.89263916015625,0.0699920654296875,-0.4767608642578125
20230215-1528,2023-02-15 15:28:49Z,u01, 81,100,movements,el-ex, lt, nd,281050.492637375, -1.0851489764015376, -0.0728730069011471, -0.05479902310217725, 0.001852871384471655, -0.02748718485236168, -0.036949560046195984, -0.8820257186889648, 0.07280852645635605, -0.4655420780181885, -0.009209513664245605, 0.0013644471764564514, 0.003475397825241089, -0.045321333348929495, -0.5149513972449317, 0.8560078232733422,-0.0046434539243264865,-0.889404296875,0.0670013427734375,-0.478912353515625
20230215-1528,2023-02-15 15:28:49Z,u01, 82,100,movements,el-ex, lt, nd,281050.50266037503, -1.0855293380524724, -0.07259588791047454, -0.0550655786383988, -0.011303411796689034, -0.041901543736457825, -0.04359947517514229, -0.8822205662727356, 0.07253213971853256, -0.4652159512042999, -0.015926897525787354, -0.0014719590544700623, 0.006674081087112427, -0.04527241627049514, -0.5151139997473408, 0.8559116176393567,-0.004820520059750651,-0.8912353515625,0.0741729736328125,-0.462066650390625
20230215-1528,2023-02-15 15:28:49Z,u01, 83,100,movements,el-ex, lt, nd,281050.51268237503, -1.0857268618658469, -0.07236527131504651, -0.05529759847042742, -0.007969723083078861, -0.04519587382674217, -0.04384520649909973, -0.8823271989822388, 0.07230212539434433, -0.46504947543144226, -0.017605602741241455, -0.002279534935951233, -0.001793205738067627, -0.045234092261401224, -0.5151981623145442, 0.8558620829196958,-0.004974940675975924,-0.8981475830078125,0.0710601806640625,-0.4585418701171875
20230215-1528,2023-02-15 15:28:49Z,u01, 84,100,movements,el-ex, lt, nd,281050.52270537504, -1.0863082090609368, -0.07223563319266829, -0.0555593069678331, -0.0011163437739014626, -0.053941428661346436, -0.04655603691935539, -0.8826057314872742, 0.07217282801866531, -0.46454083919525146, -0.010689496994018555, -0.002180755138397217, -0.008786797523498535, -0.045247582996867985, -0.5154437331633007, 0.8557127704919384,-0.005107289168143084,-0.899932861328125,0.0700225830078125,-0.4668426513671875
20230215-1528,2023-02-15 15:28:49Z,u01, 85,100,movements,el-ex, lt, nd,281050.53272737504, -1.086920391043366, -0.07161796478772002, -0.05578848836596321, 0.0008462723344564438, -0.044005706906318665, -0.049211714416742325, -0.8829292058944702, 0.07155675441026688, -0.46402105689048767, -0.01094585657119751, -0.0015341639518737793, -0.009993255138397217, -0.04504433685817903, -0.5157135676792649, 0.8555593429874583,-0.005351273811774533,-0.8932952880859375,0.0699920654296875,-0.47332763671875
20230215-1528,2023-02-15 15:28:49Z,u01, 86,100,movements,el-ex, lt, nd,281050.542750375, -1.0870519713476527, -0.07098343710390452, -0.0558554808849844, 0.03204227238893509, -0.018550947308540344, -0.05014408379793167, -0.8830302953720093, 0.07092384248971939, -0.46392589807510376, -0.0015521645545959473, 0.001601189374923706, -0.02156299352645874, -0.04479086209912145, -0.5157817607451725, 0.8555303711223693,-0.005541145655595953,-0.8938751220703125,0.0700225830078125,-0.4740142822265625
20230215-1528,2023-02-15 15:28:49Z,u01, 87,100,movements,el-ex, lt, nd,281050.552772, -1.086841365232662, -0.07032689651569982, -0.05568276357952799, 0.046730827540159225, 0.0044670188799500465, -0.03910059481859207, -0.8829736113548279, 0.07026893645524979, -0.4641334116458893, 0.009438514709472656, 0.01162499189376831, -0.027642130851745605, -0.04446521432351486, -0.5157093479796253, 0.8555903312699092,-0.005641816837368413,-0.88458251953125,0.0725250244140625,-0.4854888916015625
20230215-1528,2023-02-15 15:28:49Z,u01, 88,100,movements,el-ex, lt, nd,281050.562794, -1.0863316634973477, -0.06965778392739592, -0.05542507460232042, 0.04506315290927887, 0.01933198608458042, -0.03193482756614685, -0.8827782869338989, 0.06960146874189377, -0.4646052122116089, 0.010753810405731201, 0.010430887341499329, -0.018381267786026, -0.04411140441987123, -0.5155109911959913, 0.8557276588065418,-0.005715913432804034,-0.87353515625,0.0818939208984375,-0.4917755126953125
20230215-1528,2023-02-15 15:28:49Z,u01, 89,100,movements,el-ex, lt, nd,281050.57281700004, -1.0862832261837987, -0.0693657381267847, -0.05514364845882109, 0.04630698263645172, 0.02799844555556774, -0.017909584566950798, -0.882773756980896, 0.06931012123823166, -0.46465742588043213, 0.0063242316246032715, 0.015986502170562744, -0.009372085332870483, -0.043913915429509925, -0.5155025315065165, 0.8557432165450614,-0.0056720824620054055,-0.8720245361328125,0.0800323486328125,-0.4829864501953125
20230215-1528,2023-02-15 15:28:49Z,u01, 90,100,movements,el-ex, lt, nd,281050.58283900004, -1.0864303073803008, -0.06904945351832154, -0.05480482119961713, 0.04888492450118065, 0.02841709367930889, -0.008217809721827507, -0.8828614354133606, 0.06899459660053253, -0.46453776955604553, 0.009402632713317871, 0.020513460040092468, -0.0036934614181518555, -0.04369181897388941, -0.5155794261866602, 0.8557087068595006,-0.005605676106022491,-0.8764495849609375,0.085296630859375,-0.474029541015625
20230215-1528,2023-02-15 15:28:49Z,u01, 91,100,movements,el-ex, lt, nd,281050.592862, -1.086312385132639, -0.06873528342445831, -0.054316325138018574, 0.06621646881103516, 0.027724672108888626, -9.175902232527733e-05, -0.8828259110450745, 0.06868117302656174, -0.4646519720554352, 0.0013256669044494629, 0.02543504536151886, 0.0011662840843200684, -0.04343129382129091, -0.51554605308671, 0.8557429821746572,-0.0054804777410375595,-0.8734588623046875,0.089508056640625,-0.468231201171875
20230215-1528,2023-02-15 15:28:49Z,u01, 92,100,movements,el-ex, lt, nd,281050.602884, -1.085900975329821, -0.06848122623275726, -0.05367124642434693, 0.07231937348842621, 0.024757111445069313, 0.011960376054048538, -0.8826499581336975, 0.06842771172523499, -0.4650232195854187, 0.009862542152404785, 0.024498313665390015, 0.0041772425174713135, -0.0431553433595895, -0.5153891794898927, 0.8558525993698278,-0.005279032658119057,-0.881500244140625,0.0941162109375,-0.4634857177734375
20230215-1528,2023-02-15 15:28:49Z,u01, 93,100,movements,el-ex, lt, nd,281050.612907, -1.0855456146073206, -0.068315003188211, -0.052997313617973996, 0.06444284319877625, 0.0172808188945055, 0.01395348645746708, -0.8824947476387024, 0.06826187670230865, -0.4653421640396118, 0.010348200798034668, 0.026251070201396942, 0.013208925724029541, -0.04290972096396383, -0.5152549550171946, 0.8559472565669609,-0.005041229823383574,-0.8727874755859375,0.092926025390625,-0.460845947265625
20230215-1528,2023-02-15 15:28:49Z,u01, 94,100,movements,el-ex, lt, nd,281050.622929, -1.08478136479466, -0.06828128512569812, -0.05237169320985198, 0.053075939416885376, 0.013400859199464321, 0.011587800458073616, -0.8821408748626709, 0.06822823733091354, -0.46601754426956177, 0.003616154193878174, 0.020959392189979553, 0.019118130207061768, -0.04273229740678342, -0.5149419151725878, 0.856145864366351,-0.004798522045917213,-0.8721466064453125,0.094512939453125,-0.4521331787109375
20230215-1528,2023-02-15 15:28:49Z,u01, 95,100,movements,el-ex, lt, nd,281050.632952, -1.08370742456569, -0.06856769352916525, -0.05175954224803628, 0.05730351805686951, 0.013430153951048851, 0.011149071156978607, -0.8816226720809937, 0.06851397454738617, -0.4669555127620697, -0.0012356042861938477, 0.01766766607761383, 0.01654660701751709, -0.04269475182944404, -0.5144894571118337, 0.8564214828509582,-0.004485444696841916,-0.8785247802734375,0.0891876220703125,-0.4468994140625
20230215-1528,2023-02-15 15:28:49Z,u01, 96,100,movements,el-ex, lt, nd,281050.642974, -1.0828983074440774, -0.06872102743483113, -0.05120595860292835, 0.053315967321395874, 0.01811465434730053, -0.0013278385158628225, -0.8812351226806641, 0.06866694986820221, -0.4676637053489685, 0.0017796754837036133, 0.02161930501461029, 0.016796976327896118, -0.042616234207220875, -0.5141517388560671, 0.8566293297216387,-0.004226069700354295,-0.8828582763671875,0.086181640625,-0.450408935546875
20230215-1528,2023-02-15 15:28:49Z,u01, 97,100,movements,el-ex, lt, nd,281050.652997, -1.0823876744222198, -0.06896098823266762, -0.050719908292772745, 0.05390239506959915, 0.026639433577656746, -0.005452382378280163, -0.8809817433357239, 0.06890634447336197, -0.4681059420108795, -0.001022040843963623, 0.013414829969406128, 0.01928389072418213, -0.042592935467127, -0.5139385931401247, 0.8567597501553321,-0.0039668970279890066,-0.87945556640625,0.0902862548828125,-0.45086669921875
20230215-1528,2023-02-15 15:28:49Z,u01, 98,100,movements,el-ex, lt, nd,281050.663019, -1.0819041440071515, -0.06924487496437301, -0.05029072167292888, 0.05740711838006973, 0.03990144282579422, -0.017247524112462997, -0.8807380199432373, 0.06918954849243164, -0.46852266788482666, 0.0038459300994873047, 0.00856924057006836, 0.01896822452545166, -0.042603231595796556, -0.513734983457882, 0.8568824813267761,-0.003720180632469633,-0.8820037841796875,0.0823211669921875,-0.448822021484375
20230215-1528,2023-02-15 15:28:49Z,u01, 99,100,movements,el-ex, lt, nd,281050.67304100003, -1.0815913790407878, -0.0695544267621683, -0.04985716805642664, 0.06062111258506775, 0.04946858435869217, -0.02217674069106579, -0.8805723786354065, 0.06949836015701294, -0.4687879681587219, 0.0065032243728637695, 0.01724785566329956, 0.01717361807823181, -0.042623814787383904, -0.5136041508286054, 0.8569608668989642,-0.0034613467936860497,-0.87689208984375,0.0777587890625,-0.449554443359375
20230215-1528,2023-02-15 15:28:49Z,u01, 100,100,movements,el-ex, lt, nd,281050.68306400004, -1.081213601409848, -0.06983157509389036, -0.04948749317233237, 0.04733087494969368, 0.04334437847137451, -0.022025473415851593, -0.880378246307373, 0.06977483630180359, -0.4691115617752075, 0.011344492435455322, 0.016666211187839508, 0.01795494556427002, -0.04264689704467443, -0.5134447079176434, 0.857056179406302,-0.0032396276806902925,-0.8740692138671875,0.0867462158203125,-0.4516143798828125
20230215-1528,2023-02-15 15:28:49Z,u01, 101,100,movements,el-ex, lt, nd,281050.69308600004, -1.0811356636696634, -0.07024103116993877, -0.0492586747514174, 0.025273069739341736, 0.04057788476347923, -0.016867488622665405, -0.880316436290741, 0.07018328458070755, -0.46916669607162476, 0.018591582775115967, 0.016929149627685547, 0.029774606227874756, -0.042763315318627135, -0.5134081678116876, 0.8570730517813319,-0.003037820915445375,-0.8690338134765625,0.0864410400390625,-0.4511566162109375
20230215-1528,2023-02-15 15:28:49Z,u01, 102,100,movements,el-ex, lt, nd,281050.703109, -1.081347377771075, -0.07059710030224303, -0.04918402293951164, 0.01155299786478281, 0.037275832146406174, -0.013013096526265144, -0.8803936243057251, 0.0705384761095047, -0.46896854043006897, 0.024634957313537598, 0.028216414153575897, 0.03532898426055908, -0.0428968911276686, -0.5134935188406228, 0.8570156552157017,-0.002909619660013333,-0.861724853515625,0.0871124267578125,-0.43939208984375
20230215-1528,2023-02-15 15:28:50Z,u01, 103,100,movements,el-ex, lt, nd,281050.713131, -1.0814884208617632, -0.07083486660366138, -0.049241309740104884, -0.006502073723822832, 0.02858806774020195, -0.018215129151940346, -0.8804448843002319, 0.07077564299106598, -0.4688364565372467, 0.01957458257675171, 0.030512206256389618, 0.031901001930236816, -0.04301357954542833, -0.5135480546256501, 0.8569772706629417,-0.0028699116789862754,-0.8557586669921875,0.0987548828125,-0.4336395263671875
20230215-1528,2023-02-15 15:28:50Z,u01, 104,100,movements,el-ex, lt, nd,281050.723154, -1.081597049296878, -0.07114027419113941, -0.04943819121795013, -0.007322327699512243, 0.022298747673630714, -0.013770845718681812, -0.8804766535758972, 0.071080282330513, -0.4687305986881256, 0.016905546188354492, 0.0348004549741745, 0.028194069862365723, -0.04319501684782363, -0.5135843500226002, 0.8569463357808493,-0.0028732763596591225,-0.860870361328125,0.101287841796875,-0.4369354248046875
20230215-1528,2023-02-15 15:28:50Z,u01, 105,100,movements,el-ex, lt, nd,281050.733176, -1.0818294962599568, -0.07130869532550099, -0.04971916583389745, -0.03299327939748764, 0.007875865325331688, -0.016912071034312248, -0.8805750608444214, 0.07124827802181244, -0.46852031350135803, 0.025686144828796387, 0.024058125913143158, 0.02654951810836792, -0.043339597266189266, -0.5136745287962549, 0.8568847626631299,-0.002945253720195927,-0.8635711669921875,0.1058807373046875,-0.4405364990234375
20230215-1528,2023-02-15 15:28:50Z,u01, 106,100,movements,el-ex, lt, nd,281050.743199, -1.0821344055331072, -0.07140854814690864, -0.05012109758364809, -0.03269154578447342, -0.010830710642039776, -0.02601475454866886, -0.880711555480957, 0.07134787738323212, -0.4682484567165375, 0.020344793796539307, 0.02351602166891098, 0.020586073398590088, -0.04348603350706254, -0.513794450248362, 0.8568049490911034,-0.0030851066478593237,-0.854888916015625,0.095306396484375,-0.4419708251953125
20230215-1528,2023-02-15 15:28:50Z,u01, 107,100,movements,el-ex, lt, nd,281050.753221, -1.0825802844216557, -0.07164659052730724, -0.050604768492721025, -0.051174964755773544, -0.030881116166710854, -0.02049948275089264, -0.8809052109718323, 0.07158531248569489, -0.46784770488739014, 0.01261913776397705, 0.022683486342430115, 0.009107500314712524, -0.043712873865155356, -0.5139701599493645, 0.8566874654624903,-0.0032212302299423467,-0.8603668212890625,0.0948638916015625,-0.447662353515625
20230215-1528,2023-02-15 15:28:50Z,u01, 108,100,movements,el-ex, lt, nd,281050.76324400003, -1.0831840315495826, -0.07192826007904655, -0.05126030838882631, -0.0660678967833519, -0.04868807643651962, -0.03210766613483429, -0.8811696767807007, 0.07186625152826309, -0.46730634570121765, 0.015538632869720459, 0.024599820375442505, 0.009008586406707764, -0.04400288529630272, -0.5142086916114303, 0.8565287341786675,-0.003416139650635629,-0.8682861328125,0.094268798828125,-0.458740234375
20230215-1528,2023-02-15 15:28:50Z,u01, 109,100,movements,el-ex, lt, nd,281050.77326600003, -1.0840157325045128, -0.07221656756871608, -0.05203926621425107, -0.0710570216178894, -0.048815108835697174, -0.03700021281838417, -0.8815397620201111, 0.07215381413698196, -0.4665636122226715, 0.001992642879486084, 0.023854494094848633, -0.0019727349281311035, -0.04432800958388263, -0.5145417554975485, 0.8563109933278721,-0.0036569538780478086,-0.865631103515625,0.096466064453125,-0.4582977294921875
20230215-1528,2023-02-15 15:28:50Z,u01, 110,100,movements,el-ex, lt, nd,281050.78328900004, -1.0849313138657108, -0.07269928163612009, -0.05300682239886547, -0.08001243323087692, -0.055196844041347504, -0.05107102543115616, -0.8819355964660645, 0.07263526320457458, -0.4657399654388428, 0.0024800896644592285, 0.014477163553237915, -0.005451470613479614, -0.044785169912432865, -0.514902234731942, 0.8560692312059599,-0.003926135217649676,-0.879547119140625,0.09600830078125,-0.468536376953125
20230215-1528,2023-02-15 15:28:50Z,u01, 111,100,movements,el-ex, lt, nd,281050.79331100004, -1.0858028222119345, -0.07313388959985849, -0.053904766007652795, -0.06543149054050446, -0.04723745211958885, -0.05570969358086586, -0.8823131322860718, 0.07306871563196182, -0.4649564027786255, 5.0008296966552734e-05, 0.0072535499930381775, -0.014367908239364624, -0.04520397429901437, -0.5152459658712338, 0.8558391519487538,-0.004178536932607578,-0.87945556640625,0.0871124267578125,-0.47119140625
20230215-1528,2023-02-15 15:28:50Z,u01, 112,100,movements,el-ex, lt, nd,281050.803333, -1.0866205974689722, -0.07361409924646517, -0.05477491186506729, -0.06684056669473648, -0.05220664665102959, -0.055492646992206573, -0.8826618790626526, 0.07354763150215149, -0.4642183184623718, 0.004335582256317139, 0.01269504427909851, -0.019607335329055786, -0.045635187126532625, -0.5155659741001176, 0.8556223650091456,-0.004408109418406891,-0.88226318359375,0.080322265625,-0.4793243408203125
20230215-1528,2023-02-15 15:28:50Z,u01, 113,100,movements,el-ex, lt, nd,281050.813356, -1.0874227375279184, -0.0739453276233533, -0.055693531459776506, -0.07715779542922974, -0.06787694990634918, -0.05905326455831528, -0.8830123543739319, 0.0738779604434967, -0.4634988009929657, -0.0005935430526733398, 0.013951636850833893, -0.00978308916091919, -0.046015400624914535, -0.5158809766160868, 0.855410583607773,-0.004696977920432517,-0.878326416015625,0.08624267578125,-0.48382568359375
20230215-1528,2023-02-15 15:28:50Z,u01, 114,100,movements,el-ex, lt, nd,281050.823378, -1.0882735079990922, -0.07431151961685467, -0.05663655519144601, -0.07181735336780548, -0.0739060789346695, -0.05901491641998291, -0.8833823204040527, 0.07424314320087433, -0.46273481845855713, -0.00837177038192749, 0.0069488659501075745, -0.004794508218765259, -0.046417187683051836, -0.5162151117672124, 0.8551856295812077,-0.004985788867877126,-0.88360595703125,0.08782958984375,-0.4732818603515625
20230215-1528,2023-02-15 15:28:50Z,u01, 115,100,movements,el-ex, lt, nd,281050.833401, -1.0888691870087124, -0.07464751489380615, -0.05744262329321864, -0.046165045350790024, -0.05930663272738457, -0.05689070001244545, -0.8836356401443481, 0.07457821071147919, -0.4621969163417816, -0.009476423263549805, 0.005591467022895813, -0.010367780923843384, -0.04677027924371778, -0.5164436881219722, 0.8550268972665841,-0.005229500522131653,-0.891754150390625,0.0811920166015625,-0.467529296875
20230215-1528,2023-02-15 15:28:50Z,u01, 116,100,movements,el-ex, lt, nd,281050.843423, -1.08921951993494, -0.07502629620435206, -0.05802343480922495, -0.02747417986392975, -0.04139527678489685, -0.055950336158275604, -0.8837724924087524, 0.07495593279600143, -0.46187421679496765, 0.0007158517837524414, 0.0008497387170791626, -0.02016618847846985, -0.047082915749604076, -0.516571473877611, 0.8549317056524056,-0.005371401336166746,-0.8931121826171875,0.080169677734375,-0.472564697265625
20230215-1528,2023-02-15 15:28:50Z,u01, 117,100,movements,el-ex, lt, nd,281050.853446, -1.0892682306633856, -0.0752597878041477, -0.05845138710258295, -0.016694296151399612, -0.01931048184633255, -0.054851435124874115, -0.8837794661521912, 0.0751887634396553, -0.46182307600975037, 0.008520126342773438, -0.002251744270324707, -0.02232307195663452, -0.047293256929640905, -0.5165770126685082, 0.8549160270695656,-0.00549266059953832,-0.883056640625,0.0758056640625,-0.4820404052734375
20230215-1528,2023-02-15 15:28:50Z,u01, 118,100,movements,el-ex, lt, nd,281050.863468, -1.0890715908086375, -0.07521093515179432, -0.058819982818821885, -0.01758112758398056, -0.009164370596408844, -0.05192249268293381, -0.8836917877197266, 0.07514004409313202, -0.46199852228164673, 0.013773083686828613, 0.002649255096912384, -0.015616804361343384, -0.04736705299388174, -0.516485339168679, 0.854966091277414,-0.005667537957118493,-0.8752593994140625,0.07293701171875,-0.4841461181640625
20230215-1528,2023-02-15 15:28:50Z,u01, 119,100,movements,el-ex, lt, nd,281050.87349100003, -1.0885740910075614, -0.07502213350885602, -0.05918095783916323, -0.017133468762040138, 0.007220727391541004, -0.0432029590010643, -0.8834744095802307, 0.07495177537202835, -0.4624446630477905, 0.013662457466125488, 0.0011590644717216492, -0.01433148980140686, -0.047378209381475266, -0.5162683184255399, 0.8550950711862246,-0.005882569091259577,-0.8699188232421875,0.077789306640625,-0.4776153564453125
20230215-1528,2023-02-15 15:28:50Z,u01, 120,100,movements,el-ex, lt, nd,281050.88351300004, -1.0877221456467894, -0.07506675456913624, -0.05942785619317854, -0.00836075097322464, 0.023393573239445686, -0.030902879312634468, -0.8830772042274475, 0.07499627768993378, -0.4631956219673157, 0.023152947425842285, -0.005080491304397583, -0.009933650493621826, -0.047458440571712335, -0.5158971586141364, 0.8553138774218556,-0.0059967878525923855,-0.86981201171875,0.07611083984375,-0.476776123046875
20230215-1528,2023-02-15 15:28:50Z,u01, 121,100,movements,el-ex, lt, nd,281050.893536, -1.0871354160762114, -0.07522420151349823, -0.059559526981618455, -0.004348850809037685, 0.03622095286846161, -0.01786942407488823, -0.8827948570251465, 0.07515327632427216, -0.46370822191238403, 0.02692931890487671, -0.0004614889621734619, -0.011648893356323242, -0.04755787803047885, -0.5156395452434738, 0.8554635440593531,-0.00602628832796751,-0.85992431640625,0.069915771484375,-0.4731292724609375
20230215-1528,2023-02-15 15:28:50Z,u01, 122,100,movements,el-ex, lt, nd,281050.903558, -1.0868104093776723, -0.0753236158638463, -0.059677878133223033, -0.012095186859369278, 0.03234152868390083, -0.003489952301606536, -0.8826374411582947, 0.07525240629911423, -0.46399161219596863, 0.03269243240356445, 0.009800083935260773, 0.00041431188583374023, -0.04762987367335499, -0.5154954792989804, 0.8555460958017259,-0.006058923614345474,-0.855865478515625,0.0746917724609375,-0.4753570556640625
20230215-1528,2023-02-15 15:28:50Z,u01, 123,100,movements,el-ex, lt, nd,281050.913581, -1.0864482051440225, -0.07554383120550938, -0.0598309740344546, -0.02305099368095398, 0.02376907877624035, 0.008880403824150562, -0.8824546337127686, 0.07547199726104736, -0.46430355310440063, 0.03267747163772583, 0.006711848080158234, 0.006127834320068359, -0.047762308013623765, -0.5153319213596278, 0.855637111729859,-0.006076091674438892,-0.849945068359375,0.085052490234375,-0.4635772705078125
20230215-1528,2023-02-15 15:28:50Z,u01, 124,100,movements,el-ex, lt, nd,281050.923603, -1.0857786131527105, -0.0757662602877021, -0.05996103862458821, -0.031823184341192245, 0.012410162948071957, 0.014251467771828175, -0.8821287155151367, 0.07569379359483719, -0.46488648653030396, 0.03500652313232422, 0.002095527946949005, 0.012478649616241455, -0.04788881264980205, -0.5150372929334611, 0.8558073422935155,-0.0060902420600928275,-0.8497772216796875,0.082183837890625,-0.4581756591796875
20230215-1528,2023-02-15 15:28:50Z,u01, 125,100,movements,el-ex, lt, nd,281050.933625, -1.085085239247992, -0.07597583321858462, -0.06010312952094527, -0.029882535338401794, 4.360015736892819e-06, 0.018667999655008316, -0.8817921280860901, 0.07590276002883911, -0.4654906094074249, 0.03460890054702759, 0.004129596054553986, 0.012853860855102539, -0.04801283975151634, -0.514732412560896, 0.8559836523381956,-0.006113516741303149,-0.8471221923828125,0.077789306640625,-0.4524078369140625
20230215-1528,2023-02-15 15:28:50Z,u01, 126,100,movements,el-ex, lt, nd,281050.943648, -1.0846532935899098, -0.07634298167216924, -0.06028353975893253, -0.029836993664503098, -0.00911217276006937, 0.01798383519053459, -0.8815661668777466, 0.07626884430646896, -0.4658583700656891, 0.026463687419891357, 0.00048285722732543945, 0.012611299753189087, -0.04821487669737211, -0.5145348785046617, 0.8560910004535564,-0.006106290083245406,-0.8471832275390625,0.0800323486328125,-0.45263671875
20230215-1528,2023-02-15 15:28:50Z,u01, 127,100,movements,el-ex, lt, nd,281050.95367, -1.0843739314496397, -0.07657666816926484, -0.060456671190487386, -0.029709715396165848, -0.013629427179694176, 0.0054253521375358105, -0.8814203143119812, 0.07650184631347656, -0.46609631180763245, 0.0290948748588562, 0.0025386810302734375, 0.011460721492767334, -0.04835844665755604, -0.5144057718143794, 0.8561604394298481,-0.00612680579216762,-0.8551025390625,0.076751708984375,-0.4532470703125
20230215-1528,2023-02-15 15:28:50Z,u01, 128,100,movements,el-ex, lt, nd,281050.963693, -1.0841598977303961, -0.0766534887881851, -0.0606398345524002, -0.023082705214619637, -0.01780606061220169, 0.00477554090321064, -0.8813153505325317, 0.07657844573259354, -0.4662822186946869, 0.02030766010284424, 0.0035302042961120605, 0.000873863697052002, -0.04843773366998885, -0.51430795891976, 0.8562142610766378,-0.006190563409023634,-0.852325439453125,0.07904052734375,-0.4546356201171875
20230215-1528,2023-02-15 15:28:50Z,u01, 129,100,movements,el-ex, lt, nd,281050.97371500003, -1.0839870040241708, -0.07681798622461558, -0.060812557760501915, -0.030864177271723747, -0.027236048132181168, 0.007883583195507526, -0.8812234997749329, 0.07674245536327362, -0.4664286673069, 0.020337939262390137, -0.00855092704296112, 2.849102020263672e-05, -0.04855193816261395, -0.5142260001229801, 0.8562566988292815,-0.00622623768490388,-0.8610076904296875,0.080108642578125,-0.4654083251953125
20230215-1528,2023-02-15 15:28:50Z,u01, 130,100,movements,el-ex, lt, nd,281050.98373800004, -1.0841430998475619, -0.07720756732296274, -0.06110390397554999, -0.04299567639827728, -0.0416426844894886, 0.0035101398825645447, -0.8812698721885681, 0.07713088393211365, -0.4662770926952362, 0.020750463008880615, 0.0017723217606544495, 0.008818626403808594, -0.048793885660224176, -0.5142767781707552, 0.8562123525429325,-0.006246608032281576,-0.8608856201171875,0.0681915283203125,-0.466400146484375
20230215-1528,2023-02-15 15:28:50Z,u01, 131,100,movements,el-ex, lt, nd,281050.99376000004, -1.0845571590657845, -0.07755351964804492, -0.061491316042241055, -0.05338192731142044, -0.05587727949023247, 0.003025551326572895, -0.8814391493797302, 0.07747580111026764, -0.46589964628219604, 0.0084991455078125, 0.009468786418437958, 0.004061877727508545, -0.04904270489473433, -0.5144365729673972, 0.8561016057114462,-0.0063129992127347375,-0.8605194091796875,0.0789031982421875,-0.45745849609375
20230215-1528,2023-02-15 15:28:50Z,u01, 132,100,movements,el-ex, lt, nd,281051.003783, -1.0851915234054237, -0.07789546438544241, -0.0620324073824959, -0.07400118559598923, -0.07276278734207153, 0.0004071313887834549, -0.8817110061645508, 0.07781671732664108, -0.4653279781341553, 0.007809758186340332, 0.008120782673358917, 0.003413945436477661, -0.04933008651886713, -0.5146868467995356, 0.8559336371278277,-0.00644066089578723,-0.8729400634765625,0.086944580078125,-0.4618377685546875
20230215-1528,2023-02-15 15:28:50Z,u01, 133,100,movements,el-ex, lt, nd,281051.013805, -1.086014532957994, -0.07835508082015816, -0.06277540891460882, -0.09398691356182098, -0.09390082955360413, 0.0010646122973412275, -0.8820620179176331, 0.0782749280333519, -0.46458548307418823, 0.002514958381652832, -0.0026371031999588013, 0.009156405925750732, -0.049720421799457556, -0.5150098361235474, 0.8557154803544075,-0.006619427844279371,-0.8739013671875,0.0859375,-0.4619140625
20230215-1528,2023-02-15 15:28:50Z,u01, 134,100,movements,el-ex, lt, nd,281051.023828, -1.0870264648441985, -0.07877099581807433, -0.06358728514106143, -0.08442243933677673, -0.10111399739980698, -0.006686784327030182, -0.8825027942657471, 0.0786895602941513, -0.46367746591567993, -0.0016982555389404297, -0.0025176778435707092, 0.004509985446929932, -0.05011062837994181, -0.5154126360686714, 0.8554484470189967,-0.006833901132990318,-0.879547119140625,0.0756378173828125,-0.4554290771484375
20230215-1528,2023-02-15 15:28:50Z,u01, 135,100,movements,el-ex, lt, nd,281051.03385, -1.0880331981403526, -0.07912097357328302, -0.06436090513621233, -0.07988826930522919, -0.10245490074157715, -0.010568900965154171, -0.882944643497467, 0.07903844863176346, -0.46277597546577454, 0.0003305673599243164, 0.005342654883861542, -0.0005266368389129639, -0.050463012087327674, -0.5158153772078197, 0.8551831422088879,-0.007048826615307485,-0.8842010498046875,0.076171875,-0.45916748046875
20230215-1528,2023-02-15 15:28:50Z,u01, 136,100,movements,el-ex, lt, nd,281051.043873, -1.088885723491249, -0.07944151323926829, -0.06510419739861019, -0.0801687017083168, -0.09465929865837097, -0.011241349391639233, -0.8833163380622864, 0.07935798168182373, -0.46201127767562866, -0.0008235573768615723, 0.0005522966384887695, -0.006052106618881226, -0.05079465573600292, -0.5161533285369493, 0.854957772547721,-0.007261980168701664,-0.8826141357421875,0.084381103515625,-0.4633026123046875
20230215-1528,2023-02-15 15:28:50Z,u01, 137,100,movements,el-ex, lt, nd,281051.053895, -1.0895803611703334, -0.0795137475464075, -0.06582035830773937, -0.06916484981775284, -0.08192432671785355, -0.015084264799952507, -0.8836320042610168, 0.0794299840927124, -0.4613949656486511, -0.0034529566764831543, -0.0035022497177124023, -0.011154472827911377, -0.05101292261277915, -0.5164302471050126, 0.8547752574319107,-0.00753168593021776,-0.8841400146484375,0.0799102783203125,-0.4680633544921875
20230215-1528,2023-02-15 15:28:50Z,u01, 138,100,movements,el-ex, lt, nd,281051.063917, -1.0901815255711753, -0.07967343931702696, -0.06639657201965274, -0.051323529332876205, -0.05908425897359848, -0.01522115059196949, -0.8838979005813599, 0.07958917319774628, -0.4608577787876129, -0.007398366928100586, 0.00045843422412872314, -0.015231668949127197, -0.051232175875995274, -0.5166685418426037, 0.8546163474497572,-0.007721136399950382,-0.8870849609375,0.075927734375,-0.4725494384765625
20230215-1528,2023-02-15 15:28:50Z,u01, 139,100,movements,el-ex, lt, nd,281051.07394000003, -1.0905683262329453, -0.07994907023281436, -0.06688454418974467, -0.04324161633849144, -0.04078195244073868, -0.018572818487882614, -0.8840566277503967, 0.07986392825841904, -0.4605056941509247, 0.0036398768424987793, -0.005492590367794037, -0.01324915885925293, -0.05147734030881422, -0.5168145084393106, 0.8545122154530568,-0.007848178704976087,-0.89129638671875,0.080047607421875,-0.4760894775390625
20230215-1528,2023-02-15 15:28:50Z,u01, 140,100,movements,el-ex, lt, nd,281051.08396200003, -1.09075873964648, -0.08016574407973769, -0.06727964395734133, -0.029804373160004616, -0.026544691994786263, -0.01123447809368372, -0.884128987789154, 0.08007990568876266, -0.4603293836116791, 0.0010723471641540527, -0.005479678511619568, -0.017469048500061035, -0.05167261396209481, -0.5168803078433271, 0.8544597014876457,-0.00795583196461475,-0.8804168701171875,0.074371337890625,-0.4737548828125
20230215-1528,2023-02-15 15:28:50Z,u01, 141,100,movements,el-ex, lt, nd,281051.09398500004, -1.091022638949527, -0.08007389539914403, -0.06755076407691918, -0.02014312893152237, -0.010451210662722588, -0.008615019731223583, -0.8842569589614868, 0.07998835295438766, -0.460099458694458, 0.007075011730194092, -0.003267154097557068, -0.011290311813354492, -0.05170457178209878, -0.5169883107839358, 0.854391212946317,-0.008088684612617775,-0.883056640625,0.0746002197265625,-0.4777984619140625
20230215-1528,2023-02-15 15:28:50Z,u01, 142,100,movements,el-ex, lt, nd,281051.10400700005, -1.0910987822419618, -0.07994877353869238, -0.06768145935603505, -0.005327962338924408, 0.00020889077859465033, -0.005509241484105587, -0.8843008875846863, 0.07986363023519516, -0.4600367546081543, 0.01578587293624878, -0.003340795636177063, -0.007523059844970703, -0.051685301536491216, -0.5170205573036166, 0.8543720780322666,-0.008175038298957603,-0.8771820068359375,0.07672119140625,-0.4713897705078125
20230215-1528,2023-02-15 15:28:50Z,u01, 143,100,movements,el-ex, lt, nd,281051.11403, -1.0909404432880512, -0.08011111962766505, -0.06773180884697913, -0.011580664664506912, 0.010043944232165813, 0.006718423217535019, -0.8842164874076843, 0.08002545684576035, -0.4601707458496094, 0.0189211368560791, -0.004677563905715942, -0.0024299919605255127, -0.051766913654802314, -0.5169475994960463, 0.8544113578417333,-0.008158486732838142,-0.8685150146484375,0.0765228271484375,-0.467559814453125
20230215-1528,2023-02-15 15:28:50Z,u01, 144,100,movements,el-ex, lt, nd,281051.124052, -1.090655695715486, -0.08027291587849918, -0.0678138311562576, -0.02083062194287777, 0.00822340790182352, 0.01533215120434761, -0.8840739130973816, 0.08018673211336136, -0.4604164958000183, 0.020991027355194092, -0.004594683647155762, 0.00977867841720581, -0.05185596029467354, -0.5168198052591487, 0.8544832410331258,-0.008158901758527048,-0.86529541015625,0.075347900390625,-0.4626007080078125
20230215-1528,2023-02-15 15:28:50Z,u01, 145,100,movements,el-ex, lt, nd,281051.134075, -1.0902709400672135, -0.0804224614761671, -0.06789546701583138, -0.02266477793455124, 0.01571701094508171, 0.025323214009404182, -0.8838860392570496, 0.08033579587936401, -0.4607510566711426, 0.018575429916381836, 0.0025804638862609863, 0.007244616746902466, -0.051939272816850846, -0.5166495726368776, 0.8545810521256232,-0.00816495369604856,-0.8630828857421875,0.075592041015625,-0.4506378173828125
20230215-1528,2023-02-15 15:28:50Z,u01, 146,100,movements,el-ex, lt, nd,281051.144097, -1.0898174206772833, -0.0807559499574182, -0.06788648867164322, -0.01536505576223135, 0.019527195021510124, 0.03802036494016647, -0.8836532235145569, 0.08066820353269577, -0.4611394703388214, 0.02115023136138916, 0.0007526949048042297, 0.003909856081008911, -0.05207737996497728, -0.516447688791242, 0.854695435095621,-0.008086389741003395,-0.8653106689453125,0.082916259765625,-0.4535064697265625
20230215-1528,2023-02-15 15:28:50Z,u01, 147,100,movements,el-ex, lt, nd,281051.15412, -1.0892433719934056, -0.08103371628541547, -0.0678077920184113, -0.02453920990228653, 0.021521637216210365, 0.047496505081653595, -0.8833684325218201, 0.08094505965709686, -0.4616362452507019, 0.018637657165527344, -0.0011263266205787659, 0.0034605860710144043, -0.052173271103473355, -0.5161974664707503, 0.8548415875974352,-0.007995682942152547,-0.8625030517578125,0.0814208984375,-0.4572296142578125
20230215-1528,2023-02-15 15:28:50Z,u01, 148,100,movements,el-ex, lt, nd,281051.164142, -1.0886207187206656, -0.0814114638565132, -0.06776459072510772, -0.024755191057920456, 0.020442524924874306, 0.0521186888217926, -0.883053719997406, 0.08132155984640121, -0.4621720016002655, 0.01949787139892578, 0.0031511038541793823, 0.011564671993255615, -0.0523208501319047, -0.5159229839686945, 0.8549992439939241,-0.007895569097133645,-0.8647308349609375,0.0798187255859375,-0.4581756591796875
20230215-1528,2023-02-15 15:28:50Z,u01, 149,100,movements,el-ex, lt, nd,281051.174164, -1.0881471766305337, -0.08182750822423851, -0.06774563390581119, -0.024832401424646378, 0.011744905263185501, 0.04708624631166458, -0.8828047513961792, 0.08173622190952301, -0.46257439255714417, 0.009635865688323975, 0.003957144916057587, -0.0005909204483032227, -0.05249167628274728, -0.5157106090147173, 0.8551178594198008,-0.007792080245795746,-0.863555908203125,0.08447265625,-0.4506072998046875
20230215-1528,2023-02-15 15:28:50Z,u01, 150,100,movements,el-ex, lt, nd,281051.18418700004, -1.0878127818139123, -0.08222064197626017, -0.06773259857830827, -0.02954886108636856, -0.007663147523999214, 0.0432739332318306, -0.8826214075088501, 0.08212803304195404, -0.4628545641899109, 0.007239997386932373, 0.0061898380517959595, 0.0032598674297332764, -0.052654840776292726, -0.5155581368897, 0.8552005331424338,-0.007693468902812322,-0.8731689453125,0.085693359375,-0.463165283203125
20230215-1528,2023-02-15 15:28:50Z,u01, 151,100,movements,el-ex, lt, nd,281051.19420900004, -1.087779940106864, -0.08256615511973842, -0.06786941864189647, -0.04192803427577019, -0.0275468397885561, 0.028306646272540092, -0.8825810551643372, 0.08247237652540207, -0.46287035942077637, 0.0004552602767944336, -0.002150110900402069, 0.01372787356376648, -0.05283747257422298, -0.5155317877804962, 0.8552054809627002,-0.007663364936923541,-0.8753814697265625,0.08831787109375,-0.4595947265625
20230215-1528,2023-02-15 15:28:50Z,u01, 152,100,movements,el-ex, lt, nd,281051.204232, -1.0882068121040855, -0.08285551206027215, -0.0681637239086705, -0.04556324705481529, -0.042321790009737015, 0.016516299918293953, -0.8827574253082275, 0.08276074379682541, -0.4624824821949005, -0.005731344223022461, -0.004513666033744812, 0.015995025634765625, -0.05303849649598794, -0.5156992129806804, 0.855091754465115,-0.007702957713382453,-0.8821258544921875,0.080322265625,-0.4491424560546875
20230215-1528,2023-02-15 15:28:50Z,u01, 153,100,movements,el-ex, lt, nd,281051.214254, -1.0886922016422809, -0.08321505714370563, -0.06847694652844229, -0.03959980234503746, -0.0508500300347805, 0.006465875543653965, -0.8829553723335266, 0.08311904966831207, -0.46204012632369995, -0.010782420635223389, -0.007557518780231476, 0.008808255195617676, -0.053274594503597276, -0.5158892872048821, 0.8549621733801531,-0.0077308024521583795,-0.88848876953125,0.0782470703125,-0.4464874267578125
20230215-1528,2023-02-15 15:28:50Z,u01, 154,100,movements,el-ex, lt, nd,281051.224277, -1.0890819942424825, -0.08336722046772718, -0.06871527865184533, -0.02424214966595173, -0.05235498398542404, -0.0040802424773573875, -0.8831241726875305, 0.08327068388462067, -0.4616900384426117, -0.018868625164031982, -0.00851786881685257, -0.001353144645690918, -0.05340252427269253, -0.5160456870894493, 0.8548592946653049,-0.0077828407211240165,-0.89373779296875,0.0755615234375,-0.4532318115234375
20230215-1528,2023-02-15 15:28:50Z,u01, 155,100,movements,el-ex, lt, nd,281051.234299, -1.0894740384411212, -0.08338629623423885, -0.06899624372224253, -0.03266913443803787, -0.04916638135910034, -0.005330463405698538, -0.883303701877594, 0.08328969776630402, -0.46134305000305176, -0.017483651638031006, -0.003287859261035919, -0.006750822067260742, -0.05348470381901312, -0.51620524698645, 0.854756891676568,-0.007887505244102486,-0.9019927978515625,0.0747528076171875,-0.463043212890625
20230215-1528,2023-02-15 15:28:50Z,u01, 156,100,movements,el-ex, lt, nd,281051.244322, -1.0899628826397985, -0.08354060736809973, -0.0693469945559951, -0.03426489979028702, -0.0375821627676487, -0.011536160483956337, -0.8835177421569824, 0.08344347029924393, -0.4609052538871765, -0.007656574249267578, -0.00737839937210083, -0.0030992627143859863, -0.053643017882127005, -0.5164008064806974, 0.8546279647875299,-0.00798427997341179,-0.900787353515625,0.0800018310546875,-0.4680938720703125
20230215-1528,2023-02-15 15:28:50Z,u01, 157,100,movements,el-ex, lt, nd,281051.254344, -1.0901199591382376, -0.08366634262249309, -0.06968864517823177, -0.03095036745071411, -0.023306820541620255, -0.01085902564227581, -0.8835808038711548, 0.0835687667131424, -0.4607616364955902, -0.00658649206161499, -0.002727687358856201, -0.007668018341064453, -0.05378550021330214, -0.516455520535688, 0.8545849279292013,-0.00809342727461293,-0.89117431640625,0.0760650634765625,-0.4640045166015625
20230215-1528,2023-02-15 15:28:50Z,u01, 158,100,movements,el-ex, lt, nd,281051.264367, -1.0902613220705615, -0.08382243243363467, -0.07001008355534384, -0.027622748166322708, -0.010861070826649666, -0.014156816527247429, -0.8836343288421631, 0.08372430503368378, -0.4606306552886963, -0.007753610610961914, -0.0010064095258712769, -0.010865926742553711, -0.05393566394571952, -0.516503260685063, 0.8545456465036987,-0.00818645904954261,-0.890167236328125,0.080841064453125,-0.4684295654296875
20230215-1528,2023-02-15 15:28:50Z,u01, 159,100,movements,el-ex, lt, nd,281051.274389, -1.090573676512475, -0.08374849643492742, -0.0703023037827545, -0.01965818554162979, 0.0028664590790867805, -0.008573127910494804, -0.8837835788726807, 0.0836506336927414, -0.4603574573993683, -0.004689812660217285, 0.000547364354133606, -0.007187068462371826, -0.05398089911165892, -0.5166307540638874, 0.8544643429056002,-0.008322070935601026,-0.891387939453125,0.0827178955078125,-0.47149658203125
20230215-1528,2023-02-15 15:28:50Z,u01, 160,100,movements,el-ex, lt, nd,281051.28441200004, -1.0908891503606988, -0.08360972111091153, -0.07054739969173585, -0.017096489667892456, 0.014967863447964191, -0.00977581087499857, -0.8839391469955444, 0.08351234346628189, -0.4600840210914612, -0.0014674067497253418, 0.000929810106754303, -0.006880760192871094, -0.05398635571773386, -0.5167624802123773, 0.8543831585885195,-0.008454294672683013,-0.8884735107421875,0.084197998046875,-0.4675445556640625
20230215-1528,2023-02-15 15:28:50Z,u01, 161,100,movements,el-ex, lt, nd,281051.29443400004, -1.0909499651152623, -0.08342993433780027, -0.07073479597311066, -0.011770358309149742, 0.02997797168791294, -0.0025875670835375786, -0.8839804530143738, 0.08333317935466766, -0.4600372016429901, -0.001365065574645996, 0.004221759736537933, -0.008804380893707275, -0.05395836815201369, -0.5167880511961928, 0.8543682547861698,-0.008579389604308926,-0.885406494140625,0.084442138671875,-0.4669647216796875
20230215-1528,2023-02-15 15:28:50Z,u01, 162,100,movements,el-ex, lt, nd,281051.30445600004, -1.090765407015994, -0.08319786842979394, -0.07078360953281478, 0.00211456511169672, 0.03642308712005615, 0.0005922473501414061, -0.8839126825332642, 0.08310192078351974, -0.4602092504501343, 0.0011307001113891602, 0.004803970456123352, -0.014201760292053223, -0.05387122459715242, -0.5167139048596593, 0.8544177248233638,-0.008665469999653813,-0.885345458984375,0.087554931640625,-0.468841552734375
20230215-1528,2023-02-15 15:28:50Z,u01, 163,100,movements,el-ex, lt, nd,281051.314479, -1.0904077732021595, -0.08313065365112637, -0.07077078036227939, -0.0015391581691801548, 0.03685292229056358, 0.009893843904137611, -0.8837528824806213, 0.0830349400639534, -0.46052786707878113, 0.0030766725540161133, 0.0097995325922966, -0.012647181749343872, -0.053837701254207386, -0.5165632250277717, 0.8545105884028206,-0.00868706188088162,-0.882781982421875,0.0879058837890625,-0.4744110107421875
20230215-1528,2023-02-15 15:28:50Z,u01, 164,100,movements,el-ex, lt, nd,281051.324501, -1.0900795545698185, -0.08302899072913103, -0.07074385915485712, -0.0038630333729088306, 0.03069782443344593, 0.009239771403372288, -0.8836092352867126, 0.08293362706899643, -0.46082186698913574, 0.0015597343444824219, 0.0021341294050216675, -0.006814241409301758, -0.053785954082094786, -0.5164263142534563, 0.8545964781942081,-0.008710776098905889,-0.88067626953125,0.09283447265625,-0.473175048828125
20230215-1528,2023-02-15 15:28:50Z,u01, 165,100,movements,el-ex, lt, nd,281051.334524, -1.0897166112985073, -0.08306564532260322, -0.07072630037607278, -0.0016768253408372402, 0.02119247056543827, 0.010688398033380508, -0.8834392428398132, 0.08297015726566315, -0.4611411392688751, 0.002351045608520508, -0.00190020352602005, -0.0038247108459472656, -0.053795476364714406, -0.5162707459316822, 0.8546899384289516,-0.008703524933024695,-0.882049560546875,0.0850677490234375,-0.4676361083984375
20230215-1528,2023-02-15 15:28:50Z,u01, 166,100,movements,el-ex, lt, nd,281051.344546, -1.0894260079615994, -0.083132853537456, -0.07069360732537694, -0.005928562488406897, 0.006284626200795174, 0.007215103134512901, -0.883300244808197, 0.0830371305346489, -0.461395263671875, 0.001647353172302246, -0.0011584535241127014, -0.0015259385108947754, -0.05381444662771143, -0.5161456949880231, 0.8547645043364337,-0.008679939832946291,-0.8810882568359375,0.0810699462890625,-0.4649658203125
20230215-1528,2023-02-15 15:28:50Z,u01, 167,100,movements,el-ex, lt, nd,281051.354569, -1.089364723978664, -0.08322727016408721, -0.07072178554710835, -0.00847713090479374, -0.010203536599874496, 0.001509227091446519, -0.8832650184631348, 0.08313122391700745, -0.46144574880599976, -0.0011954307556152344, -0.0007642731070518494, 0.0012253522872924805, -0.05386173484164355, -0.5161163088999774, 0.8547793461204497,-0.008669147049313807,-0.88165283203125,0.081878662109375,-0.462921142578125
20230215-1528,2023-02-15 15:28:50Z,u01, 168,100,movements,el-ex, lt, nd,281051.364591, -1.089469627376718, -0.08329725682121068, -0.07082752625010759, -0.00968753732740879, -0.02790316939353943, -0.002908158116042614, -0.8833082318305969, 0.08320096135139465, -0.46135038137435913, -0.0017625689506530762, -0.007380038499832153, 0.005066812038421631, -0.05391933612757028, -0.516156481213796, 0.8547512122169117,-0.00869336270428997,-0.88446044921875,0.082366943359375,-0.4602203369140625
20230215-1528,2023-02-15 15:28:50Z,u01, 169,100,movements,el-ex, lt, nd,281051.37461400003, -1.0896956776785969, -0.08339898901676644, -0.0709829782065604, -0.014920800924301147, -0.0404898039996624, -0.012801428325474262, -0.8834050297737122, 0.083302341401577, -0.4611468017101288, -0.0015285015106201172, -0.013539142906665802, 0.007701277732849121, -0.05400383878136495, -0.5162462440233654, 0.8546913684371089,-0.00872731373550554,-0.88507080078125,0.0758209228515625,-0.4562835693359375
20230215-1528,2023-02-15 15:28:50Z,u01, 170,100,movements,el-ex, lt, nd,281051.38463600003, -1.0898558591926462, -0.08341201414467045, -0.0711287549282152, -0.004578681662678719, -0.04573170095682144, -0.016172192990779877, -0.8834778666496277, 0.08331532031297684, -0.46100476384162903, -0.002599954605102539, -0.012743428349494934, 0.005011111497879028, -0.05404773150634976, -0.5163104372983004, 0.8546491671963548,-0.008781900453376172,-0.8849334716796875,0.06976318359375,-0.4534454345703125
20230215-1528,2023-02-15 15:28:50Z,u01, 171,100,movements,el-ex, lt, nd,281051.39465900004, -1.0900285428690288, -0.08345534955503561, -0.07119546480517965, 0.0031368574127554893, -0.0432048961520195, -0.021612364798784256, -0.883554220199585, 0.0833585113286972, -0.46085047721862793, -0.007589459419250488, -0.013457998633384705, -0.00828099250793457, -0.05408419986882472, -0.5163813064499327, 0.8546038674008823,-0.008794493771492468,-0.886077880859375,0.0705718994140625,-0.45599365234375
20230215-1528,2023-02-15 15:28:50Z,u01, 172,100,movements,el-ex, lt, nd,281051.40468100004, -1.0902769278122726, -0.08333508405689627, -0.07125507881764531, -0.002689340151846409, -0.04089486971497536, -0.01609109714627266, -0.8836775422096252, 0.08323866128921509, -0.4606356620788574, 0.00040733814239501953, -0.012239515781402588, -0.00400969386100769, -0.054049393029540656, -0.5164889531720905, 0.854540506609494,-0.008844458819812485,-0.891143798828125,0.0699005126953125,-0.4691314697265625
20230215-1528,2023-02-15 15:28:50Z,u01, 173,100,movements,el-ex, lt, nd,281051.41470300005, -1.0905467430865337, -0.08318835745915927, -0.07135183061108123, -0.007599829230457544, -0.03526894003152847, -0.006934724748134613, -0.883812665939331, 0.08309244364500046, -0.46040287613868713, 0.0006339550018310547, -0.01274941861629486, 0.0006860494613647461, -0.05401299940286318, -0.5166054214151605, 0.8544717213274338,-0.008916591093155285,-0.883270263671875,0.0709991455078125,-0.4646453857421875
20230215-1528,2023-02-15 15:28:50Z,u01, 174,100,movements,el-ex, lt, nd,281051.424726, -1.090802416546959, -0.08312848792079683, -0.07143470577053813, -0.005036536138504744, -0.03176768496632576, -0.004183679353445768, -0.8839347958564758, 0.08303277939558029, -0.4601792097091675, 0.00214463472366333, -0.0013219565153121948, -0.0012770891189575195, -0.054010017737001065, -0.5167139615349309, 0.8544058572658684,-0.008960635671086745,-0.8831787109375,0.070343017578125,-0.459716796875
20230215-1528,2023-02-15 15:28:50Z,u01, 175,100,movements,el-ex, lt, nd,281051.434748, -1.0911115355962342, -0.08307426842856072, -0.07142621282023878, 0.009476987645030022, -0.025125758722424507, 0.0006842331495136023, -0.8840810060501099, 0.0829787477850914, -0.45990800857543945, -0.00010478496551513672, 0.0025162547826766968, -0.005485117435455322, -0.05398608929516337, -0.516847655256557, 0.8543264638358448,-0.008962739714308107,-0.8817901611328125,0.0817108154296875,-0.461456298828125
20230215-1528,2023-02-15 15:28:50Z,u01, 176,100,movements,el-ex, lt, nd,281051.444771, -1.091415546953152, -0.08289689243404882, -0.07132895643393883, 0.01271033100783825, -0.02339550480246544, 0.005323459859937429, -0.8842337727546692, 0.08280198276042938, -0.45964598655700684, 0.005937933921813965, 0.0017317086458206177, -0.003595590591430664, -0.0538866865447342, -0.5169847480365721, 0.8542498123417798,-0.008959066821569469,-0.884185791015625,0.0854949951171875,-0.46539306640625
20230215-1528,2023-02-15 15:28:50Z,u01, 177,100,movements,el-ex, lt, nd,281051.454793, -1.0917545054667595, -0.08261250944737757, -0.07120839247919397, 0.006943751126527786, -0.019283583387732506, 0.011628706008195877, -0.8844103813171387, 0.082518570125103, -0.4593570828437805, 0.004237711429595947, 0.0009622648358345032, -0.0020839571952819824, -0.0537357932189085, -0.5171401405296269, 0.8541651138633285,-0.008972333584899477,-0.8782958984375,0.08453369140625,-0.4632415771484375
20230215-1528,2023-02-15 15:28:50Z,u01, 178,100,movements,el-ex, lt, nd,281051.464816, -1.092032353315736, -0.08245464428276476, -0.07112651470179049, -0.004201844334602356, -0.020242320373654366, 0.017532669007778168, -0.884549617767334, 0.08236124366521835, -0.4591173529624939, 0.009061336517333984, 0.006811127066612244, 0.008708417415618896, -0.0536485644602714, -0.5172650737052248, 0.8540950188320902,-0.008970931395067374,-0.8801727294921875,0.0834808349609375,-0.4614410400390625
20230215-1528,2023-02-15 15:28:50Z,u01, 179,100,movements,el-ex, lt, nd,281051.474838, -1.092107417729883, -0.0823016493399238, -0.07103193708642411, 0.0026672659441828728, -0.02214275300502777, 0.018484720960259438, -0.8845951557159424, 0.08220876753330231, -0.45905670523643494, 0.0015080571174621582, 0.00980173796415329, 0.009273350238800049, -0.053559225363875286, -0.517303639796318, 0.8540771970997545,-0.008968289787787201,-0.87548828125,0.08917236328125,-0.450408935546875
20230215-1528,2023-02-15 15:28:50Z,u01, 180,100,movements,el-ex, lt, nd,281051.48486100003, -1.0921591296846447, -0.0822112167181305, -0.07093340368195432, -0.005259632598608732, -0.014814799651503563, 0.01964479498565197, -0.8846254348754883, 0.08211863785982132, -0.459014356136322, 0.002865910530090332, 0.01225697249174118, 0.003173261880874634, -0.0534954228892154, -0.517330701651821, 0.8540649785694909,-0.008948331287168498,-0.883087158203125,0.092010498046875,-0.4497833251953125
20230215-1528,2023-02-15 15:28:50Z,u01, 181,100,movements,el-ex, lt, nd,281051.49488300004, -1.0921676807555054, -0.08210461272444668, -0.0708664616255768, -0.002620592713356018, 0.004328534472733736, 0.01491672545671463, -0.8846372365951538, 0.08201240003108978, -0.45901086926460266, 0.008798062801361084, 0.011554501950740814, 0.0020253658294677734, -0.053432696624511215, -0.5173388688125596, 0.8540640845234296,-0.00894722765102129,-0.8817596435546875,0.0943756103515625,-0.455841064453125
20230215-1528,2023-02-15 15:28:50Z,u01, 182,100,movements,el-ex, lt, nd,281051.50490600005, -1.091951385769424, -0.0821964930481121, -0.0707942364844909, 0.0038679330609738827, 0.02107156254351139, 0.007967472076416016, -0.8845312595367432, 0.08210396766662598, -0.4591987431049347, 0.006448984146118164, 0.01007438451051712, -0.007476091384887695, -0.053452218911280984, -0.5172460639694941, 0.8541195774803018,-0.00889828502866881,-0.8758392333984375,0.09356689453125,-0.4569854736328125
20230215-1528,2023-02-15 15:28:50Z,u01, 183,100,movements,el-ex, lt, nd,281051.514928, -1.091547085042659, -0.08229905197313388, -0.07074505061858002, 0.0023334198631346226, 0.030548155307769775, 0.000704446341842413, -0.8843379616737366, 0.08220618218183517, -0.4595524072647095, 0.004684090614318848, 0.009819582104682922, -0.008816123008728027, -0.05348143268926655, -0.5170720773968015, 0.8542234095479498,-0.008861437582203554,-0.878082275390625,0.0921783447265625,-0.4666748046875
20230215-1528,2023-02-15 15:28:50Z,u01, 184,100,movements,el-ex, lt, nd,281051.524951, -1.0910719046278416, -0.08232733650471027, -0.07071495027800594, 0.0059409374371171, 0.03447418659925461, -0.004305492155253887, -0.8841174840927124, 0.08223436772823334, -0.45997151732444763, 0.0021747350692749023, 0.00796034187078476, -0.004460275173187256, -0.05348360770032575, -0.5168691831428871, 0.8543461356680729,-0.008853941165364636,-0.8796539306640625,0.0920257568359375,-0.4683685302734375
20230215-1528,2023-02-15 15:28:50Z,u01, 185,100,movements,el-ex, lt, nd,281051.534973, -1.0906586903434319, -0.08227123639443196, -0.07063393386652965, 0.015036755241453648, 0.03376898169517517, -0.004795274697244167, -0.8839313983917236, 0.08217845857143402, -0.46033892035484314, -0.0004984736442565918, 0.009267471730709076, -0.003024756908416748, -0.053436922437553595, -0.5166962710565958, 0.854453722240615,-0.008844941274089439,-0.8819427490234375,0.0901947021484375,-0.4644317626953125
20230215-1528,2023-02-15 15:28:50Z,u01, 186,100,movements,el-ex, lt, nd,281051.544995, -1.0904584296430113, -0.08233528858593958, -0.07053304685286885, 0.014385612681508064, 0.03272742033004761, -0.01097966730594635, -0.8838345408439636, 0.08224229514598846, -0.46051350235939026, -0.002014458179473877, 0.014696799218654633, 0.004016280174255371, -0.05343729318210714, -0.5166117516634148, 0.8545054006151171,-0.00879056430400529,-0.884429931640625,0.0914459228515625,-0.4633636474609375
20230215-1528,2023-02-15 15:28:50Z,u01, 187,100,movements,el-ex, lt, nd,281051.55501891667, -1.0903651937026555, -0.08242665576927835, -0.07043374484383004, 0.021312551572918892, 0.03003736026585102, -0.007822036743164062, -0.8837848901748657, 0.08233334869146347, -0.4605924189090729, -0.0019876956939697266, 0.01452944427728653, 0.004415690898895264, -0.053450207929030914, -0.5165722335114824, 0.8545290650027606,-0.008726912632101421,-0.8858489990234375,0.0969390869140625,-0.4564971923828125
20230215-1528,2023-02-15 15:28:50Z,u01, 188,100,movements,el-ex, lt, nd,281051.56504091667, -1.0901666909867664, -0.08257650918036827, -0.07032738007886638, 0.009315809234976768, 0.023563748225569725, -0.008738163858652115, -0.8836824893951416, 0.08248269557952881, -0.4607621431350708, 0.001846611499786377, 0.010473854839801788, 0.0029679536819458008, -0.05348579008927439, -0.5164864020724972, 0.8545795518047339,-0.008647885391303602,-0.885772705078125,0.09686279296875,-0.4561767578125
20230215-1528,2023-02-15 15:28:50Z,u01, 189,100,movements,el-ex, lt, nd,281051.5750639167, -1.0899514506821466, -0.08276510392286612, -0.07026587602035422, 0.010080669075250626, 0.017356719821691513, -0.0005849495064467192, -0.8835695385932922, 0.08267064392566681, -0.46094515919685364, 0.0028780102729797363, 0.008927874267101288, 0.00534820556640625, -0.05354942348747249, -0.5163912121121305, 0.8546338531016017,-0.008578433158348038,-0.8818359375,0.09295654296875,-0.457794189453125
20230215-1528,2023-02-15 15:28:50Z,u01, 190,100,movements,el-ex, lt, nd,281051.5850859167, -1.0896251235968042, -0.0829450627532228, -0.07019645310589018, 0.005775935016572475, 0.009631953202188015, -0.002806292148306966, -0.883405864238739, 0.08284998685121536, -0.46122655272483826, 0.008207499980926514, 0.006246089935302734, 0.007323324680328369, -0.05360687563624698, -0.5162489942182312, 0.8547168241932747,-0.008510825549674094,-0.8806915283203125,0.0915985107421875,-0.455596923828125
20230215-1528,2023-02-15 15:28:50Z,u01, 191,100,movements,el-ex, lt, nd,281051.5951089167, -1.0893596312666247, -0.08313453415030377, -0.0701266661369602, 0.006301510613411665, 0.004098969977349043, 0.0002632937394082546, -0.8832694888114929, 0.0830388069152832, -0.46145379543304443, 0.00569075345993042, 0.015899188816547394, 0.009976744651794434, -0.053668571434254575, -0.5161325254408831, 0.8547840001437154,-0.008438982883663378,-0.8751983642578125,0.0890960693359375,-0.4539031982421875
20230215-1528,2023-02-15 15:28:50Z,u01, 192,100,movements,el-ex, lt, nd,281051.6051309167, -1.089230797657852, -0.08328157040359528, -0.07008139363447383, 0.007441343739628792, 0.006928578484803438, 0.0028185967821627855, -0.8831992149353027, 0.08318533003330231, -0.4615619480609894, 0.008901119232177734, 0.010015353560447693, 0.011946439743041992, -0.053719077702454425, -0.5160748866834588, 0.8548161877917985,-0.008384966855038487,-0.8775787353515625,0.09893798828125,-0.45147705078125
20230215-1528,2023-02-15 15:28:50Z,u01, 193,100,movements,el-ex, lt, nd,281051.6151539167, -1.0890925099023299, -0.08344880355352614, -0.06999383626408245, 0.0039452784694731236, 0.013168897479772568, -0.00140280625782907, -0.8831229209899902, 0.0833519846200943, -0.46167758107185364, 0.011479973793029785, 0.007498845458030701, 0.007850676774978638, -0.05376726676839053, -0.5160138505101527, 0.8548506409031669,-0.008307896915581443,-0.874298095703125,0.09320068359375,-0.449615478515625
20230215-1528,2023-02-15 15:28:50Z,u01, 194,100,movements,el-ex, lt, nd,281051.6251759167, -1.0890437354550833, -0.08376725602801857, -0.07001276209662878, -0.0027070315554738045, 0.02890205569565296, -0.00029519759118556976, -0.8830768465995789, 0.08366932719945908, -0.46170833706855774, 0.016301453113555908, 0.009790755808353424, 0.00878170132637024, -0.053907821345068246, -0.5159842836384763, 0.8548603580042312,-0.008234740802371672,-0.87164306640625,0.090850830078125,-0.453826904296875
20230215-1528,2023-02-15 15:28:50Z,u01, 195,100,movements,el-ex, lt, nd,281051.63519891666, -1.0888472891760108, -0.08408371561554166, -0.07004664110309775, 0.004357879050076008, 0.04369564726948738, -0.003274689195677638, -0.8829625844955444, 0.08398467302322388, -0.461869478225708, 0.014539241790771484, -0.00038176774978637695, 0.0001996159553527832, -0.054050784844293084, -0.5158912377701941, 0.8549080430332197,-0.008172488484413591,-0.8667755126953125,0.0934600830078125,-0.4529266357421875
20230215-1528,2023-02-15 15:28:50Z,u01, 196,100,movements,el-ex, lt, nd,281051.64522091666, -1.088407306509336, -0.0842419286446677, -0.06997070892344887, 0.01595274917781353, 0.05669240653514862, -0.0025646903086453676, -0.8827475905418396, 0.08414232730865479, -0.46225181221961975, 0.017696380615234375, 0.003336310386657715, -0.007886737585067749, -0.05409691854952249, -0.5157010979815997, 0.8550205182960439,-0.008110925782396526,-0.8684234619140625,0.0836029052734375,-0.461669921875
20230215-1528,2023-02-15 15:28:50Z,u01, 197,100,movements,el-ex, lt, nd,281051.65524391667, -1.0879348792877694, -0.08438494894536314, -0.06982759114538112, 0.012196969240903854, 0.05650438740849495, 0.004680279642343521, -0.8825185298919678, 0.08428483456373215, -0.4626632332801819, 0.019527196884155273, 0.01631636917591095, -0.0036606192588806152, -0.05411915054589742, -0.5154992761873901, 0.855141696341514,-0.008025470183889922,-0.86505126953125,0.0874786376953125,-0.4701385498046875
20230215-1528,2023-02-15 15:28:50Z,u01, 198,100,movements,el-ex, lt, nd,281051.6652659167, -1.087529830681815, -0.08453462773238053, -0.06974265817784144, -0.0021297717466950417, 0.04436676576733589, 0.009262780658900738, -0.8823198676109314, 0.08443398028612137, -0.46301478147506714, 0.015925824642181396, 0.008705675601959229, 0.004778087139129639, -0.05415953272766842, -0.5153245145183677, 0.855245052147733,-0.007961355465417201,-0.8629913330078125,0.1006011962890625,-0.4663238525390625
20230215-1528,2023-02-15 15:28:50Z,u01, 199,100,movements,el-ex, lt, nd,281051.6752879167, -1.087385521718064, -0.08499928563711452, -0.06975899920984431, -0.008205583319067955, 0.027005352079868317, 0.008661119267344475, -0.8822181224822998, 0.08489697426557541, -0.46312376856803894, 0.00923234224319458, 0.004992567002773285, 0.009052693843841553, -0.05436152384971625, -0.5152503620755684, 0.8552778370111099,-0.007851951834095193,-0.86639404296875,0.0931396484375,-0.4582366943359375
20230215-1528,2023-02-15 15:28:50Z,u01, 200,100,movements,el-ex, lt, nd,281051.6853109167, -1.0874419323944209, -0.0853283816908456, -0.06982577162229724, -0.006617540959268808, 0.005485678091645241, 0.005929781123995781, -0.8822194933891296, 0.08522487431764603, -0.46306103467941284, 0.007265329360961914, 0.00577855110168457, 0.011278808116912842, -0.05451942429265209, -0.5152641274138274, 0.8552600760550605,-0.0077937694102604245,-0.87298583984375,0.0898895263671875,-0.454071044921875
20230215-1528,2023-02-15 15:28:50Z,u01, 201,100,movements,el-ex, lt, nd,281051.6953329167, -1.0875939709044364, -0.08558766498160238, -0.06990458177062991, -0.013669668696820736, -0.01737462915480137, 0.003869720036163926, -0.8822702169418335, 0.08548320829868317, -0.4629165828227997, -0.0004506111145019531, 0.0006679072976112366, 0.00910496711730957, -0.05465099900419299, -0.5153202722099128, 0.8552181151787837,-0.007756183604994079,-0.8749542236328125,0.09100341796875,-0.4517822265625
20230215-1528,2023-02-15 15:28:50Z,u01, 202,100,movements,el-ex, lt, nd,281051.7053559167, -1.0879073574381748, -0.08589425654967443, -0.07003585440453099, -0.01920078694820404, -0.033169038593769073, -0.0030552975367754698, -0.8823919892311096, 0.08578867465257645, -0.4626278579235077, -0.00589829683303833, -0.0017280057072639465, 0.008648425340652466, -0.05481689621412958, -0.5154426966453274, 0.8551340136978618,-0.00772433897882923,-0.882720947265625,0.086151123046875,-0.4538116455078125
20230215-1528,2023-02-15 15:28:51Z,u01, 203,100,movements,el-ex, lt, nd,281051.7153779167, -1.0882008130379404, -0.08591114591103678, -0.07026016029977339, -0.02568141743540764, -0.04742653667926788, -0.010289162397384644, -0.8825265765190125, 0.0858055055141449, -0.46236827969551086, -0.0021476149559020996, 0.0013832375407218933, 0.006298243999481201, -0.05488305242759949, -0.5155615469087702, 0.8550574795719393,-0.007807821582246202,-0.8882904052734375,0.0840606689453125,-0.4539794921875
20230215-1528,2023-02-15 15:28:51Z,u01, 204,100,movements,el-ex, lt, nd,281051.7254009167, -1.0883652185191959, -0.08596957616650626, -0.07047697305241254, -0.021739140152931213, -0.056947603821754456, -0.01444236095994711, -0.8825980424880981, 0.08586371690034866, -0.46222081780433655, -0.00137406587600708, -0.007311463356018066, -0.0010207891464233398, -0.054964529576902184, -0.51562436848335, 0.8550136090114311,-0.007880856367829118,-0.884674072265625,0.087188720703125,-0.4560699462890625
20230215-1528,2023-02-15 15:28:51Z,u01, 205,100,movements,el-ex, lt, nd,281051.7354229167, -1.088663275095762, -0.08634962310724345, -0.07071609788463751, -0.02236039936542511, -0.05859849974513054, -0.013003003783524036, -0.8827068209648132, 0.08624235540628433, -0.461942583322525, 0.0004589557647705078, -0.005935341119766235, -0.0017567873001098633, -0.05518952454711543, -0.5157352283700636, 0.8549323083704603,-0.007876386164904159,-0.88397216796875,0.07855224609375,-0.4632415771484375
20230215-1528,2023-02-15 15:28:51Z,u01, 206,100,movements,el-ex, lt, nd,281051.74544591666, -1.0891626575199387, -0.08651694129468548, -0.07090855610264404, -0.010677112266421318, -0.05270039662718773, -0.013177440501749516, -0.8829246163368225, 0.08640904724597931, -0.461495041847229, -0.0018867254257202148, 0.004273943603038788, -0.0001291036605834961, -0.05531251558054914, -0.515938954446075, 0.8548012372279828,-0.007901481607959766,-0.8822479248046875,0.0803070068359375,-0.4636993408203125
20230215-1528,2023-02-15 15:28:51Z,u01, 207,100,movements,el-ex, lt, nd,281051.75546791666, -1.0896655317516235, -0.08656257506746852, -0.07103894769063628, -0.0006617046892642975, -0.03532912954688072, -0.008784955367445946, -0.8831530809402466, 0.08645451068878174, -0.4610491394996643, 0.001927495002746582, 0.007127642631530762, -0.005366265773773193, -0.05536761705924844, -0.5161490596525627, 0.8546705236106372,-0.007931457188762203,-0.8848114013671875,0.0906829833984375,-0.4616241455078125
20230215-1528,2023-02-15 15:28:51Z,u01, 208,100,movements,el-ex, lt, nd,281051.7654909167, -1.0900213956364113, -0.08662256477110132, -0.07100627257672182, 0.013635209761559963, -0.015380455181002617, -0.001883107703179121, -0.883312463760376, 0.08651427924633026, -0.46073243021965027, 0.006405174732208252, 0.0037262067198753357, -0.01271730661392212, -0.0553861796516778, -0.516300455056005, 0.8545781968486617,-0.007892077057944336,-0.8812255859375,0.0935821533203125,-0.4664154052734375
20230215-1528,2023-02-15 15:28:51Z,u01, 209,100,movements,el-ex, lt, nd,281051.7755129167, -1.0902507775745391, -0.08658573085623925, -0.07084210674330163, 0.01623624376952648, -0.005102783907204866, 0.008069870993494987, -0.8834208846092224, 0.08647757768630981, -0.46053123474121094, 0.012876570224761963, 0.007043533027172089, -0.015924394130706787, -0.055328991181778094, -0.5164039895297954, 0.8545199049206056,-0.007825140277102233,-0.8769073486328125,0.090240478515625,-0.47344970703125
20230215-1528,2023-02-15 15:28:51Z,u01, 210,100,movements,el-ex, lt, nd,281051.7855359167, -1.0904657074326152, -0.08661013010226411, -0.0707185630013499, 0.0031366865150630474, -0.000683800783008337, 0.019017327576875687, -0.8835180401802063, 0.08650188893079758, -0.4603404104709625, 0.013690769672393799, 0.00994892418384552, -0.006075024604797363, -0.055308328993944555, -0.5164985825357172, 0.8544647123942154,-0.007760081108029702,-0.87054443359375,0.0935211181640625,-0.4764556884765625
20230215-1528,2023-02-15 15:28:51Z,u01, 211,100,movements,el-ex, lt, nd,281051.7955579167, -1.0905666407733843, -0.08683958165876195, -0.07059592663399882, 0.00010325061157345772, -0.0006843334995210171, 0.027992472052574158, -0.8835468888282776, 0.0867304801940918, -0.46024206280708313, 0.012254774570465088, 0.015274539589881897, 0.0013644695281982422, -0.05537488960919256, -0.5165390526829226, 0.8544369986574033,-0.007645337392114212,-0.8698272705078125,0.0964508056640625,-0.4664154052734375
20230215-1528,2023-02-15 15:28:51Z,u01, 212,100,movements,el-ex, lt, nd,281051.8055799167, -1.0904981004150849, -0.08693486860192605, -0.07053733585380284, -0.01494014821946621, 0.0005513732903636992, 0.030197571963071823, -0.8835079669952393, 0.0868254080414772, -0.4602987766265869, 0.011666595935821533, 0.017437905073165894, 0.002901315689086914, -0.05540013153910561, -0.5165088921998612, 0.854453986991587,-0.007597469168304303,-0.8712921142578125,0.1020050048828125,-0.4588775634765625
20230215-1528,2023-02-15 15:28:51Z,u01, 213,100,movements,el-ex, lt, nd,281051.8156029167, -1.090368203414859, -0.08714072514523952, -0.07051183594679006, -0.013486860319972038, 0.0049751498736441135, 0.03393377363681793, -0.8834322690963745, 0.08703048527240753, -0.46040526032447815, 0.009790360927581787, 0.010381624102592468, 0.0005663931369781494, -0.05548084240648103, -0.5164486898049174, 0.8544856383394062,-0.007536743880632026,-0.8718414306640625,0.1042633056640625,-0.4573974609375
20230215-1528,2023-02-15 15:28:51Z,u01, 214,100,movements,el-ex, lt, nd,281051.8256249167, -1.0903142661306837, -0.08754105180804801, -0.07045899099893753, -0.00898372195661068, 0.0009718864457681775, 0.026132307946681976, -0.8833764791488647, 0.08742928504943848, -0.46043676137924194, 0.0052484869956970215, 0.00699210911989212, -0.0036135315895080566, -0.055637713700306304, -0.5164165595887672, 0.8544959525810759,-0.0074117671300791416,-0.8736419677734375,0.097412109375,-0.4598388671875
20230215-1528,2023-02-15 15:28:51Z,u01, 215,100,movements,el-ex, lt, nd,281051.8356479167, -1.0901781983162167, -0.08792461167311474, -0.0704129918853331, -0.00696219177916646, -0.006401075050234795, 0.018100375309586525, -0.8832840919494629, 0.08781136572360992, -0.4605414569377899, 0.0008225440979003906, 0.016024701297283173, 0.0023962855339050293, -0.055788903190323605, -0.5163495607759367, 0.8545276646876786,-0.007296369018408747,-0.8781280517578125,0.09442138671875,-0.46405029296875
20230215-1528,2023-02-15 15:28:51Z,u01, 216,100,movements,el-ex, lt, nd,281051.84566991666, -1.0899527176724053, -0.08815256620548133, -0.07040981997277222, -0.012642981484532356, -0.01823216676712036, 0.009638180024921894, -0.8831624388694763, 0.08803843706846237, -0.4607313573360443, -0.0028696060180664062, 0.007008567452430725, 0.009055912494659424, -0.05588448080259921, -0.5162472771884804, 0.8545836941971711,-0.0072421611753234255,-0.8824615478515625,0.1038360595703125,-0.4581451416015625
20230215-1528,2023-02-15 15:28:51Z,u01, 217,100,movements,el-ex, lt, nd,281051.85569291667, -1.0896984304110744, -0.08837664874361854, -0.07048170724889845, -0.008460808545351028, -0.024999259039759636, -0.005978730041533709, -0.8830277323722839, 0.08826164901256561, -0.4609467387199402, -0.007719278335571289, -0.002568289637565613, 0.010858267545700073, -0.055997689911569414, -0.5161306881143324, 0.8546468159432922,-0.007221857348589088,-0.8860321044921875,0.0950469970703125,-0.4516754150390625
20230215-1528,2023-02-15 15:28:51Z,u01, 218,100,movements,el-ex, lt, nd,281051.86571491667, -1.0897346510996018, -0.0884984887386349, -0.07056544621292458, -0.0028109136037528515, -0.0317264050245285, -0.01801302097737789, -0.883034884929657, 0.0883830115199089, -0.46090981364250183, -0.011618375778198242, 0.002147383987903595, 0.0037564635276794434, -0.05607139498792705, -0.5161405809288874, 0.8546360274355682,-0.007225022220452631,-0.8907470703125,0.085693359375,-0.4500885009765625
20230215-1528,2023-02-15 15:28:51Z,u01, 219,100,movements,el-ex, lt, nd,281051.8757379167, -1.0899909731519275, -0.08866273025393419, -0.070683936882559, -0.00137400534003973, -0.03418769687414169, -0.028461163863539696, -0.8831400275230408, 0.08854661136865616, -0.4606766700744629, -0.010246694087982178, -0.0034636035561561584, 0.005110234022140503, -0.05617295600120487, -0.5162424431208172, 0.854567720495734,-0.00722584732637656,-0.8946533203125,0.0905303955078125,-0.4571533203125
20230215-1528,2023-02-15 15:28:51Z,u01, 220,100,movements,el-ex, lt, nd,281051.8857599167, -1.0902784004808759, -0.08878938128221683, -0.07082115793932929, 0.0009149820543825626, -0.032578349113464355, -0.03432837128639221, -0.8832625150680542, 0.08867276459932327, -0.46041765809059143, -0.005729734897613525, -0.005710728466510773, 0.007689386606216431, -0.05626342711487223, -0.5163580146151044, 0.8544918434101083,-0.007243534798683747,-0.8933868408203125,0.0850830078125,-0.45556640625
20230215-1528,2023-02-15 15:28:51Z,u01, 221,100,movements,el-ex, lt, nd,281051.8957829167, -1.0905118082170269, -0.08871694827155963, -0.07093626092816871, 0.0044439369812607765, -0.0303823072463274, -0.026589278131723404, -0.8833756446838379, 0.08860061317682266, -0.4602144658565521, -0.001038968563079834, -0.0006184354424476624, 0.005044758319854736, -0.056263108817599924, -0.5164564218892473, 0.8544318798415982,-0.007304944476075938,-0.8889923095703125,0.0829620361328125,-0.452728271484375
20230215-1528,2023-02-15 15:28:51Z,u01, 222,100,movements,el-ex, lt, nd,281051.9058049167, -1.0907032133940955, -0.08865164475519054, -0.07102043252252117, -0.0017963824793696404, -0.03278607502579689, -0.01879953220486641, -0.8834689259529114, 0.08853556960821152, -0.4600480794906616, 0.005783379077911377, -0.00416971743106842, 0.008647322654724121, -0.05625769768361745, -0.5165375439241248, 0.8543828838206777,-0.007352474419345161,-0.8844146728515625,0.087982177734375,-0.455169677734375
20230215-1528,2023-02-15 15:28:51Z,u01, 223,100,movements,el-ex, lt, nd,281051.9158279167, -1.0910945940339405, -0.08888678947512321, -0.07110737396006972, -0.0014283903874456882, -0.035642314702272415, -0.010406500659883022, -0.8836303353309631, 0.08876978605985641, -0.4596925973892212, 0.0015503168106079102, 0.008443966507911682, 0.013708710670471191, -0.05638185005244542, -0.5166960300505874, 0.8542790532682489,-0.007317530866255211,-0.877685546875,0.0843658447265625,-0.4514007568359375
20230215-1528,2023-02-15 15:28:51Z,u01, 224,100,movements,el-ex, lt, nd,281051.9258499167, -1.0916692180207435, -0.08901706247985294, -0.0711560943811162, -0.003351991530507803, -0.03968978673219681, 0.004007591865956783, -0.883884072303772, 0.08889954537153244, -0.45917943120002747, 0.003848731517791748, 0.01157958060503006, 0.014828264713287354, -0.05645206940201028, -0.5169365929106209, 0.8541291482058669,-0.007288291621890497,-0.882080078125,0.0972137451171875,-0.44598388671875
20230215-1528,2023-02-15 15:28:51Z,u01, 225,100,movements,el-ex, lt, nd,281051.9358719167, -1.0923745271070817, -0.0890500621369716, -0.07119198312844116, -0.008992813527584076, -0.04596765711903572, 0.015048658475279808, -0.884205162525177, 0.08893241733312607, -0.45855459570884705, 0.008900046348571777, -0.0010265260934829712, 0.018948853015899658, -0.056477977663700156, -0.5172358672806755, 0.8539464006454046,-0.007275129570793774,-0.880035400390625,0.1004791259765625,-0.4443511962890625
20230215-1528,2023-02-15 15:28:51Z,u01, 226,100,movements,el-ex, lt, nd,281051.94589491666, -1.0930594781298593, -0.08926416359353288, -0.0711813186202582, -0.004501925315707922, -0.06355437636375427, 0.02059522457420826, -0.8845021724700928, 0.08914566785097122, -0.45794010162353516, 0.0022541284561157227, 0.001186378300189972, 0.01850217580795288, -0.05656892550849878, -0.5175228617203971, 0.8537671711612401,-0.007195543340649391,-0.87530517578125,0.0879058837890625,-0.439605712890625
20230215-1528,2023-02-15 15:28:51Z,u01, 227,100,movements,el-ex, lt, nd,281051.95591691666, -1.093891633848401, -0.08943647124478313, -0.07112045105350907, -0.014544401317834854, -0.07931256294250488, 0.036153730005025864, -0.8848691582679749, 0.08931728452444077, -0.45719677209854126, 0.002895951271057129, 0.006843604147434235, 0.01757580041885376, -0.05662955459525925, -0.517875183490011, 0.853550152645141,-0.00710117342923349,-0.8822479248046875,0.09033203125,-0.4394378662109375
20230215-1528,2023-02-15 15:28:51Z,u01, 228,100,movements,el-ex, lt, nd,281051.96593991667, -1.0949182687245131, -0.08976836359296265, -0.07112137818112592, -0.022795407101511955, -0.09653469175100327, 0.048368584364652634, -0.8853116631507874, 0.08964784443378448, -0.45627447962760925, 0.0008818507194519043, 0.003018781542778015, 0.027792423963546753, -0.056774756843242236, -0.5183043338597166, 0.8532809208990902,-0.006986036250106953,-0.8819732666015625,0.096160888671875,-0.4396209716796875
20230215-1528,2023-02-15 15:28:51Z,u01, 229,100,movements,el-ex, lt, nd,281051.9759619167, -1.095977112883154, -0.09031547200819476, -0.07116350538939255, -0.03812060505151749, -0.11178102344274521, 0.05203069746494293, -0.8857505321502686, 0.09019274264574051, -0.4553143382072449, -0.0075293779373168945, 0.008714728057384491, 0.032889991998672485, -0.057022259426269144, -0.518740098184545, 0.8530008419436982,-0.006831292487322627,-0.884429931640625,0.0926666259765625,-0.4284820556640625
20230215-1528,2023-02-15 15:28:51Z,u01, 230,100,movements,el-ex, lt, nd,281051.9859849167, -1.0971451608840095, -0.09085075215429218, -0.07128066481873463, -0.03879358619451523, -0.12013936042785645, 0.04898776859045029, -0.8862387537956238, 0.09072582423686981, -0.45425736904144287, -0.01230555772781372, 0.017718389630317688, 0.03445756435394287, -0.05728441824116559, -0.5192203868690599, 0.8526920328807022,-0.006708238696124788,-0.893280029296875,0.098907470703125,-0.42242431640625
20230215-1528,2023-02-15 15:28:51Z,u01, 231,100,movements,el-ex, lt, nd,281051.9960069167, -1.0985039691903349, -0.09163160077264186, -0.07146688389605235, -0.045659005641937256, -0.12171381711959839, 0.041597045958042145, -0.8867917656898499, 0.09150342643260956, -0.4530203342437744, -0.01588761806488037, 0.007495597004890442, 0.024858683347702026, -0.057669472184884045, -0.5197730926007181, 0.8523304745630876,-0.006544654961161759,-0.8985443115234375,0.1084442138671875,-0.4197998046875
20230215-1528,2023-02-15 15:28:51Z,u01, 232,100,movements,el-ex, lt, nd,281052.0060299167, -1.0997983813229428, -0.0924177748952322, -0.07173553774753906, -0.046738915145397186, -0.10851359367370605, 0.030449585989117622, -0.8873130679130554, 0.09228627383708954, -0.4518393278121948, -0.020111799240112305, 0.010161243379116058, 0.020122408866882324, -0.05807781227610546, -0.5202953994724245, 0.8519850683631984,-0.006416147503375965,-0.902679443359375,0.0989990234375,-0.42816162109375
20230215-1528,2023-02-15 15:28:51Z,u01, 233,100,movements,el-ex, lt, nd,281052.0160519167, -1.100976354822613, -0.09274193723564642, -0.072034413446575, -0.038728322833776474, -0.09267257899045944, 0.012078620493412018, -0.887817919254303, 0.09260904788970947, -0.4507801830768585, -0.01553279161453247, 0.016247153282165527, 0.009099304676055908, -0.058297171313197366, -0.5207795633631654, 0.851674051157219,-0.006424338434860487,-0.9074249267578125,0.102447509765625,-0.4317169189453125
20230215-1528,2023-02-15 15:28:51Z,u01, 234,100,movements,el-ex, lt, nd,281052.0260749167, -1.1019965656696393, -0.09286935851387197, -0.0723153684764355, -0.025354722514748573, -0.06652379781007767, -0.0062284814193844795, -0.888266921043396, 0.09273592382669449, -0.4498688876628876, -0.015617966651916504, 0.01789030432701111, -0.0009673237800598145, -0.05842778518741582, -0.5212022171355303, 0.8514061866941657,-0.006480819352660276,-0.903350830078125,0.108856201171875,-0.441680908203125
20230215-1528,2023-02-15 15:28:51Z,u01, 235,100,movements,el-ex, lt, nd,281052.0360969167, -1.1027262958067692, -0.09290447172740326, -0.07256084112414136, -0.0139800775796175, -0.04299876466393471, -0.026350393891334534, -0.8885919451713562, 0.09277088195085526, -0.4492190480232239, -0.013980567455291748, 0.019182853400707245, -0.0030209124088287354, -0.0585090736818045, -0.5215047089873576, 0.8512146754114225,-0.006554765112644167,-0.9038848876953125,0.110626220703125,-0.450836181640625
20230215-1528,2023-02-15 15:28:51Z,u01, 236,100,movements,el-ex, lt, nd,281052.0461189167, -1.1034660053248218, -0.09262997151424708, -0.07286742034851987, -0.008900897577404976, -0.021857261657714844, -0.04795209318399429, -0.8889467120170593, 0.0924975648522377, -0.4485730826854706, -0.007842719554901123, 0.0215008482336998, 7.152557373046875e-05, -0.0584749231124458, -0.5218181109271292, 0.8510235195001993,-0.006735591319884713,-0.9025726318359375,0.1119537353515625,-0.452239990234375
20230215-1528,2023-02-15 15:28:51Z,u01, 237,100,movements,el-ex, lt, nd,281052.05614191666, -1.1042511046901975, -0.09234543648074267, -0.07327629179391205, -0.011355379596352577, -0.0061632548458874226, -0.061154767870903015, -0.8893222212791443, 0.09221424162387848, -0.4478869140148163, -0.00023478269577026367, 0.024973273277282715, 0.0024065375328063965, -0.0584635083380283, -0.5221480228733918, 0.850820262898957,-0.006961274422700062,-0.89678955078125,0.1139984130859375,-0.4485015869140625
20230215-1528,2023-02-15 15:28:51Z,u01, 238,100,movements,el-ex, lt, nd,281052.06616391666, -1.104996408508791, -0.09218646727939432, -0.07373698452972252, -0.014908835291862488, 0.003913081716746092, -0.06931362301111221, -0.8896687626838684, 0.09205595403909683, -0.4472305178642273, 0.010106444358825684, 0.022690139710903168, -0.0024154484272003174, -0.058518980686813334, -0.5224559988982557, 0.8506254703633259,-0.007177178817444438,-0.889556884765625,0.1171875,-0.4454803466796875
20230215-1528,2023-02-15 15:28:51Z,u01, 239,100,movements,el-ex, lt, nd,281052.0761869167, -1.1055417735924544, -0.09179778330068462, -0.07428109065282647, -0.023710545152425766, 0.006176501978188753, -0.0717373713850975, -0.8899445533752441, 0.09166891127824783, -0.4467613101005554, 0.01692819595336914, 0.018942058086395264, 0.00213545560836792, -0.05849819090504755, -0.5226827950089029, 0.8504849159073515,-0.007494744269038873,-0.8795623779296875,0.11474609375,-0.44964599609375
20230215-1528,2023-02-15 15:28:51Z,u01, 240,100,movements,el-ex, lt, nd,281052.0862089167, -1.1061092258267289, -0.09149131196502727, -0.07488742830193236, -0.029439270496368408, -0.007275390904396772, -0.07364792376756668, -0.8902229070663452, 0.09136372804641724, -0.446268767118454, 0.01619952917098999, 0.02086467295885086, 0.013911008834838867, -0.05852882514179356, -0.5229148948470128, 0.8503371492004342,-0.007816514489675888,-0.873016357421875,0.1106109619140625,-0.4446258544921875
20230215-1528,2023-02-15 15:28:51Z,u01, 241,100,movements,el-ex, lt, nd,281052.0962319167, -1.1064766889552093, -0.09141620936893799, -0.07555512683395428, -0.0452754944562912, -0.008443186990916729, -0.06603340804576874, -0.8903930187225342, 0.09128893911838531, -0.4459446966648102, 0.01736140251159668, 0.018162362277507782, 0.01979726552963257, -0.05867302288087759, -0.5230536514145854, 0.8502391529813216,-0.008109365402191015,-0.8740234375,0.1122283935546875,-0.4323577880859375
20230215-1528,2023-02-15 15:28:51Z,u01, 242,100,movements,el-ex, lt, nd,281052.1062539167, -1.1066476807659804, -0.09145064026569985, -0.07625359934542655, -0.037974968552589417, -0.0031312459614127874, -0.06643315404653549, -0.8904663920402527, 0.09132322669029236, -0.4457910358905792, 0.02150893211364746, 0.011658355593681335, 0.011602222919464111, -0.05887101196242172, -0.5231048476243165, 0.8501912248741303,-0.008392210777085267,-0.8730316162109375,0.1094512939453125,-0.4261474609375
20230215-1528,2023-02-15 15:28:51Z,u01, 243,100,movements,el-ex, lt, nd,281052.1162769167, -1.106606614228966, -0.091467112190294, -0.07679896282173705, -0.01959097757935524, 0.020740797743201256, -0.062358565628528595, -0.890446662902832, 0.09133962541818619, -0.4458268880844116, 0.017781376838684082, 0.005294285714626312, -0.009953111410140991, -0.05902046616437135, -0.5230708698224732, 0.8501993858802837,-0.008620917693614876,-0.86895751953125,0.1029815673828125,-0.4341888427734375
20230215-1528,2023-02-15 15:28:51Z,u01, 244,100,movements,el-ex, lt, nd,281052.1262989167, -1.1062901029916512, -0.09150125915444983, -0.07718208883769248, -0.0028407596983015537, 0.04844779148697853, -0.057676997035741806, -0.890302836894989, 0.09137362986803055, -0.4461073875427246, 0.02302372455596924, -0.0019723698496818542, -0.021589815616607666, -0.059133752865160476, -0.5229240015884241, 0.8502803255390528,-0.008784166278589606,-0.8726654052734375,0.0966339111328125,-0.455780029296875
