SessionID,LoggingTime,UID,RecNo,Hertz,Activity,MoveType,Wrist,Side,TimeStamp,DMRoll,DMPitch,DMYaw,DMRotX,DMRotY,DMRotZ,DMGrvX,DMGrvY,DMGrvZ,DMUAccelX,DMUAccelY,DMUAccelZ,DMQuatX,DMQuatY,DMQuatW,DMQuatZ,AccelroX,AceelroY,AceelroZ
20230118-1502,2023-01-18 15:02:58Z,u01, 1,100,movements,wr-su, rt, d,125778.57083504167, 0.1570762877552592, 0.48050044914864326, -0.03855538274535836, -0.015362624078989029, -0.029212290421128273, -0.020762016996741295, 0.13871748745441437, -0.46222302317619324, -0.8758466839790344, 0.006714046001434326, -0.042705655097961426, 0.0585554838180542, 0.23863704202871297, 0.07161722483542082, 0.9684645133489979,-3.469446951953614e-18,0.1454315185546875,-0.5049285888671875,-0.817291259765625
20230118-1502,2023-01-18 15:02:58Z,u01, 2,100,movements,wr-su, rt, d,125778.58085804168, 0.1568192677983524, 0.4801989425284668, -0.038773932667323215, -0.03722531348466873, -0.03912324458360672, -0.020827265456318855, 0.13851413130760193, -0.46195563673973083, -0.8760198950767517, 0.02501434087753296, -0.041264086961746216, 0.030148983001708984, 0.23849895312221014, 0.0714723267591137, 0.968509235024302,-0.00014865802699452063,0.1635284423828125,-0.5032196044921875,-0.8458709716796875
20230118-1502,2023-01-18 15:02:58Z,u01, 3,100,movements,wr-su, rt, d,125778.59088004168, 0.1564740525529979, 0.47990093828350927, -0.038859690852152365, -0.014124615117907524, -0.034877367317676544, -0.0035835907328873873, 0.13823315501213074, -0.46169131994247437, -0.8762036561965942, 0.01220327615737915, -0.018685996532440186, 0.003965497016906738, 0.23835776878394435, 0.07130049678980892, 0.9685566584085971,-0.00024335063210208924,0.1504364013671875,-0.480377197265625,-0.8722381591796875
20230118-1502,2023-01-18 15:02:58Z,u01, 4,100,movements,wr-su, rt, d,125778.60090304168, 0.15613225500026007, 0.4798920065263682, -0.03879433483997486, 0.004821646027266979, -0.03032975271344185, 0.010516515001654625, 0.13793429732322693, -0.46168339252471924, -0.8762548565864563, -0.002802446484565735, 0.0068492889404296875, -0.013118863105773926, 0.2383511087368412, 0.07114293449662266, 0.9685697580302199,-0.00025278859464180486,0.1351318359375,-0.454833984375,-0.889373779296875
20230118-1502,2023-01-18 15:02:58Z,u01, 5,100,movements,wr-su, rt, d,125778.61092604167, 0.15570273377386973, 0.48002190288138347, -0.0386292994436647, 0.015982573851943016, -0.0417933315038681, 0.01629275269806385, 0.13754861056804657, -0.46179860830307007, -0.8762547969818115, -0.00302712619304657, 0.023856043815612793, -0.0396386981010437, 0.23840805017783062, 0.07095217365780122, 0.9685697663189489,-0.00021884969619450148,0.134521484375,-0.4379425048828125,-0.9158935546875
20230118-1502,2023-01-18 15:02:58Z,u01, 6,100,movements,wr-su, rt, d,125778.62094804167, 0.15519155753233435, 0.4801962571155298, -0.03850719766325304, 0.01811177097260952, -0.043252475559711456, 0.010727278888225555, 0.13708822429180145, -0.4619532525539398, -0.8762454390525818, -0.00017111003398895264, 0.019494086503982544, -0.04709434509277344, 0.23848804492495013, 0.07071593946400281, 0.9685673520220072,-0.00021369023518008623,0.1369171142578125,-0.4424591064453125,-0.92333984375
20230118-1502,2023-01-18 15:02:58Z,u01, 7,100,movements,wr-su, rt, d,125778.63097104167, 0.15469925879845264, 0.48049671687406414, -0.038387322571755735, 0.03681153804063797, -0.042406391352415085, 0.015644166618585587, 0.1366354376077652, -0.4622197151184082, -0.8761756420135498, -0.0036245733499526978, 0.01208534836769104, -0.03909224271774292, 0.23862914924007242, 0.07048626308524082, 0.9685493913398678,-0.00020238413644194098,0.1330108642578125,-0.45013427734375,-0.9152679443359375
20230118-1502,2023-01-18 15:02:58Z,u01, 8,100,movements,wr-su, rt, d,125778.64099404168, 0.1542965170621653, 0.48096359305704406, -0.03829276761026679, 0.053628336638212204, -0.029667425900697708, 0.016962165012955666, 0.136249378323555, -0.4626336693763733, -0.8760172724723816, -0.012744724750518799, 0.009722203016281128, -0.016942262649536133, 0.23885169530724268, 0.07029389216762476, 0.9685085723219402,-0.0001861161886061377,0.123504638671875,-0.452911376953125,-0.8929595947265625
20230118-1502,2023-01-18 15:02:58Z,u01, 9,100,movements,wr-su, rt, d,125778.65101604168, 0.15406735048616935, 0.4815756906916577, -0.03818861260912107, 0.06079048663377762, -0.003315180540084839, 0.02128351479768753, 0.13600513339042664, -0.4631762206554413, -0.8757684826850891, -0.022433951497077942, 0.004634261131286621, 0.010564625263214111, 0.2391442282821889, 0.070184091116511, 0.9684442640275654,-0.00013878470434976545,0.1135711669921875,-0.4585418701171875,-0.865203857421875
20230118-1502,2023-01-18 15:02:58Z,u01, 10,100,movements,wr-su, rt, d,125778.66103904168, 0.15400301852567222, 0.4821503601171998, -0.038033693679831414, 0.04238538071513176, 0.0041547198779881, 0.022275276482105255, 0.13590794801712036, -0.46368545293807983, -0.875514030456543, -0.023343846201896667, -0.003706604242324829, 0.027842581272125244, 0.23941684053130013, 0.07016089889209702, 0.9683786191113747,-4.870175669910784e-05,0.1125640869140625,-0.4673919677734375,-0.8476715087890625
20230118-1502,2023-01-18 15:02:58Z,u01, 11,100,movements,wr-su, rt, d,125778.67106204167, 0.1540090372516454, 0.48254526436667194, -0.037905654654782066, 0.035462189465761185, 0.005626915488392115, 0.01579926908016205, 0.1358851194381714, -0.464035302400589, -0.875332236289978, -0.017644762992858887, -0.007262974977493286, 0.029201924800872803, 0.23960340466575805, 0.07017188753316994, 0.9683317172012877,2.965084947494437e-05,0.1182403564453125,-0.4712982177734375,-0.84613037109375
20230118-1502,2023-01-18 15:02:58Z,u01, 12,100,movements,wr-su, rt, d,125778.68108404167, 0.15406560485045595, 0.4829820601701331, -0.03777420350127786, 0.04736412316560745, 0.019802922382950783, 0.023523502051830292, 0.1359035223722458, -0.46442219614982605, -0.8751241564750671, -0.009575992822647095, -0.011041790246963501, 0.022951364517211914, 0.23981010255653615, 0.07020701072660634, 0.9682780359438338,0.00011737018229553489,0.1263275146484375,-0.4754638671875,-0.8521728515625
20230118-1502,2023-01-18 15:02:58Z,u01, 13,100,movements,wr-su, rt, d,125778.69110704167, 0.15420923575367937, 0.48353903003517834, -0.037619372643008055, 0.05748666450381279, 0.01815708912909031, 0.01772976852953434, 0.1359894573688507, -0.46491536498069763, -0.8748489022254944, -0.013278260827064514, 0.0075483620166778564, 0.00320589542388916, 0.24007412306628673, 0.07028491591327442, 0.968206845513291,0.00023162912539483743,0.122711181640625,-0.457366943359375,-0.87164306640625
20230118-1502,2023-01-18 15:02:58Z,u01, 14,100,movements,wr-su, rt, d,125778.70113004168, 0.15426490341809315, 0.48415744359372986, -0.03756981511799642, 0.06421913951635361, -0.0018496429547667503, 0.008784742094576359, 0.13599395751953125, -0.4654628038406372, -0.8745570778846741, -0.013038605451583862, 0.029519110918045044, -0.012955069541931152, 0.2403715193750182, 0.07030648312174856, 0.9681314918510736,0.00028681713403137105,0.122955322265625,-0.435943603515625,-0.88751220703125
20230118-1502,2023-01-18 15:02:59Z,u01, 15,100,movements,wr-su, rt, d,125778.71115204168, 0.15425382827346182, 0.4848769417464196, -0.03759674402859897, 0.07970640808343887, -0.004027309827506542, 0.012638549320399761, 0.1359327733516693, -0.46609950065612793, -0.8742274045944214, -0.005241230130195618, 0.03366529941558838, -0.015298902988433838, 0.2407205021043531, 0.07028469565996734, 0.968046297251353,0.0003009751635193181,0.1306915283203125,-0.43243408203125,-0.8895263671875
20230118-1502,2023-01-18 15:02:59Z,u01, 16,100,movements,wr-su, rt, d,125778.72117504168, 0.15416014102004652, 0.485740616794537, -0.037528359811635104, 0.09108929336071014, -0.0060593015514314175, 0.02409413456916809, 0.13578900694847107, -0.4668634235858917, -0.8738420605659485, -0.0062418729066848755, 0.031133383512496948, -0.019376933574676514, 0.24113582307115156, 0.07023174665855147, 0.9679467853889869,0.0003570115208362083,0.129547119140625,-0.43572998046875,-0.893218994140625
20230118-1502,2023-01-18 15:02:59Z,u01, 17,100,movements,wr-su, rt, d,125778.73119804167, 0.13141254598266333, 0.4845223425235551, -0.026872388978613958, 0.09050396084785461, -0.0013550939038395882, 0.01958891935646534, 0.11595223098993301, -0.4657857418060303, -0.8772677779197693, 0.00939873605966568, 0.027644753456115723, -0.0075740814208984375, 0.24021550031811315, 0.060519603745327145, 0.9688274058283965,0.0027347721265836167,0.1253509521484375,-0.438140869140625,-0.8848419189453125
20230118-1502,2023-01-18 15:02:59Z,u01, 18,100,movements,wr-su, rt, d,125778.74122004167, 0.13194922811106313, 0.4945185280036426, -0.02713150153489622, 0.06592138856649399, -0.005751173943281174, 0.0045588379725813866, 0.11580464243888855, -0.474607914686203, -0.8725460767745972, 0.008401922881603241, 0.03736719489097595, -0.004880011081695557, 0.24505965728142307, 0.06060297523029205, 0.9676074792394992,0.003009765147114405,0.12420654296875,-0.4372406005859375,-0.8774261474609375
20230118-1502,2023-01-18 15:02:59Z,u01, 19,100,movements,wr-su, rt, d,125778.75124304167, 0.13438661298404114, 0.49861341493047684, -0.028424061744116418, 0.047139544039964676, -0.011128629557788372, -0.004850190132856369, 0.11766964197158813, -0.4782082438468933, -0.8703279495239258, 0.011450245976448059, 0.02985912561416626, 0.00010401010513305664, 0.2470752165438739, 0.06156184462102689, 0.967034659359036,0.002823498138286121,0.129119873046875,-0.4483489990234375,-0.8702239990234375
20230118-1502,2023-01-18 15:02:59Z,u01, 20,100,movements,wr-su, rt, d,125778.76126604168, 0.13759555849183683, 0.5005636070019013, -0.030101681968838806, 0.041899241507053375, -0.016689041629433632, -0.003707694122567773, 0.1203337237238884, -0.47992005944252014, -0.8690204620361328, 0.011456452310085297, 0.014481157064437866, 0.0010548233985900879, 0.24806546491870696, 0.06287532371645058, 0.9666975180532795,0.00247740757020422,0.1317901611328125,-0.4654388427734375,-0.8679656982421875
20230118-1502,2023-01-18 15:02:59Z,u01, 21,100,movements,wr-su, rt, d,125778.77128804168, 0.13793701560028337, 0.4959492009421135, -0.030481544950603776, 0.04115079343318939, -0.02293229103088379, -0.014758986420929432, 0.1209336593747139, -0.4758667051792145, -0.871163547039032, 0.010902293026447296, 0.014608681201934814, 0.008889436721801758, 0.24584721174147528, 0.063066444100963, 0.9672523011853885,0.00217343538519337,0.1318359375,-0.4612579345703125,-0.862274169921875
20230118-1502,2023-01-18 15:02:59Z,u01, 22,100,movements,wr-su, rt, d,125778.78131104168, 0.13757600403014764, 0.4873786951837818, -0.030657786040583734, 0.028171880170702934, -0.038913652300834656, -0.016667675226926804, 0.12117404490709305, -0.4683113992214203, -0.8752149939537048, 0.009944744408130646, 0.020053893327713013, 0.01208639144897461, 0.24170810530167353, 0.06300540773603362, 0.9682999081928275,0.001742217210280306,0.1311187744140625,-0.4482574462890625,-0.863128662109375
20230118-1502,2023-01-18 15:02:59Z,u01, 23,100,movements,wr-su, rt, d,125778.79133404167, 0.13852621772282256, 0.4812282411742075, -0.03148424397956114, -0.004225017037242651, -0.04579845815896988, -0.016881845891475677, 0.12240104377269745, -0.46286827325820923, -0.8779356479644775, 0.012715548276901245, 0.019554585218429565, 0.014486551284790039, 0.2387563032321836, 0.0634634773221429, 0.9690027690393949,0.001238765428115917,0.1351165771484375,-0.4433135986328125,-0.8634490966796875
20230118-1502,2023-01-18 15:02:59Z,u01, 24,100,movements,wr-su, rt, d,125778.80135604167, 0.13878510764369367, 0.47731972096611375, -0.03189398382119006, -0.013124769553542137, -0.038183681666851044, -0.004348743241280317, 0.12287767231464386, -0.45940011739730835, -0.8796889781951904, 0.012498319149017334, 0.008869022130966187, 0.01799464225769043, 0.23687605499670264, 0.0636023475771159, 0.9694554201012087,0.0009321589106947581,0.1353759765625,-0.450531005859375,-0.8616943359375
20230118-1502,2023-01-18 15:02:59Z,u01, 25,100,movements,wr-su, rt, d,125778.81137904167, 0.13862689982225151, 0.4749535024722409, -0.031945241374933805, 0.006062165834009647, -0.02996889501810074, 0.005546923726797104, 0.12288835644721985, -0.45729708671569824, -0.8807824850082397, 0.009283289313316345, -0.0003598630428314209, 0.01684516668319702, 0.23573125697209515, 0.06355723524118399, 0.9697373975945139,0.0008045145102589107,0.132171630859375,-0.4576568603515625,-0.8639373779296875
20230118-1502,2023-01-18 15:02:59Z,u01, 26,100,movements,wr-su, rt, d,125778.82140204168, 0.1384303151327474, 0.47343883083957816, -0.031985792715354906, 0.027500610798597336, -0.046556126326322556, 0.0013726853067055345, 0.12281064689159393, -0.4559495449066162, -0.8814916610717773, 0.007438398897647858, 0.016847282648086548, 0.01265627145767212, 0.23499852236317884, 0.06348118196055524, 0.9699202957020385,0.0007079377282947358,0.1302490234375,-0.4391021728515625,-0.86883544921875
20230118-1502,2023-01-18 15:02:59Z,u01, 27,100,movements,wr-su, rt, d,125778.83142404168, 0.13886772281338466, 0.473580134878956, -0.03255958544922937, 0.03642362728714943, -0.06077554449439049, -0.016643093898892403, 0.12318728864192963, -0.4560753107070923, -0.8813740611076355, 0.009472645819187164, 0.03372719883918762, 0.015804052352905273, 0.23508510310495812, 0.06362361558069797, 0.9698901583063291,0.0004861021494256719,0.132659912109375,-0.4223480224609375,-0.865570068359375
20230118-1502,2023-01-18 15:02:59Z,u01, 28,100,movements,wr-su, rt, d,125778.84144704168, 0.13954315049249888, 0.47490041238398695, -0.033317712598807496, 0.008611970581114292, -0.03772535175085068, -0.020089756697416306, 0.12369870394468307, -0.45724987983703613, -0.8806936144828796, 0.003910563886165619, 0.02013126015663147, 0.029176950454711914, 0.23574897284882795, 0.06384056506815047, 0.9697148947793961,0.0002451542229394352,0.1276092529296875,-0.4371185302734375,-0.8515167236328125
20230118-1502,2023-01-18 15:02:59Z,u01, 29,100,movements,wr-su, rt, d,125778.85147004167, 0.1402714025426916, 0.475537689635839, -0.03394323167625172, -0.029121749103069305, -0.013138516806066036, -0.021487010642886162, 0.12429926544427872, -0.45781654119491577, -0.8803145289421082, -0.005295954644680023, 0.0026009976863861084, 0.03600001335144043, 0.23607774958625857, 0.0641094313581301, 0.9696170987951942,5.0688619270322643e-05,0.1190032958984375,-0.4552154541015625,-0.8443145751953125
20230118-1502,2023-01-18 15:02:59Z,u01, 30,100,movements,wr-su, rt, d,125778.86149204167, 0.1409639322445439, 0.4750273208798619, -0.03441459744019285, -0.055591437965631485, 0.015531743876636028, -0.02526497095823288, 0.12494169175624847, -0.45736274123191833, -0.8804594874382019, -0.01161465048789978, -0.0016980171203613281, 0.03924250602722168, 0.2358456084140201, 0.06439801635374338, 0.9696544776029818,-0.00011457787263843139,0.1133270263671875,-0.4590606689453125,-0.841217041015625
20230118-1502,2023-01-18 15:02:59Z,u01, 31,100,movements,wr-su, rt, d,125778.87151504167, 0.14198571211177122, 0.4742210813155694, -0.034896608757491884, -0.05609264597296715, 0.040867194533348083, -0.0232180655002594, 0.12589339911937714, -0.4566456079483032, -0.8806961178779602, -0.012825757265090942, -0.0009807944297790527, 0.04056251049041748, 0.23547060316526422, 0.06485009106792261, 0.9697154886525052,-0.0002572103411517049,0.113067626953125,-0.4576263427734375,-0.8401336669921875
20230118-1502,2023-01-18 15:02:59Z,u01, 32,100,movements,wr-su, rt, d,125778.88153804168, 0.143097098665794, 0.47374355769021553, -0.03531903672015181, -0.057467635720968246, 0.05708051845431328, -0.027418935671448708, 0.1269032061100006, -0.45622074604034424, -0.8807713985443115, -0.012675896286964417, 0.010190993547439575, 0.0340002179145813, 0.23525312000923201, 0.06534730179268872, 0.9697348986176907,-0.0003487479845262695,0.114227294921875,-0.4460296630859375,-0.846771240234375
20230118-1502,2023-01-18 15:02:59Z,u01, 33,100,movements,wr-su, rt, d,125778.89156104167, 0.1441407299578871, 0.47334675200457493, -0.035720934160051544, -0.0715312585234642, 0.06355971843004227, -0.040477216243743896, 0.1278483271598816, -0.45586758852005005, -0.8808175325393677, -0.011866256594657898, 0.023280858993530273, 0.02351778745651245, 0.23507423399805966, 0.0658128294988397, 0.9697467154595244,-0.00043556236579378807,0.1159820556640625,-0.432586669921875,-0.8572998046875
20230118-1502,2023-01-18 15:02:59Z,u01, 34,100,movements,wr-su, rt, d,125778.90158304168, 0.14507821613777933, 0.47225789102661575, -0.03609896626563062, -0.07753695547580719, 0.06938964873552322, -0.034207068383693695, 0.12874570488929749, -0.4548981785774231, -0.881187915802002, -0.0052563101053237915, 0.014529436826705933, 0.02239280939102173, 0.2345592999304279, 0.0662417201123015, 0.9698421002044624,-0.0005493128099084942,0.1234893798828125,-0.44036865234375,-0.858795166015625
20230118-1502,2023-01-18 15:02:59Z,u01, 35,100,movements,wr-su, rt, d,125778.91160604167, 0.1460235963355058, 0.47090520143458126, -0.0363479106332764, -0.06007232517004013, 0.06777843087911606, -0.021788107231259346, 0.12966813147068024, -0.453693151473999, -0.8816738128662109, -0.0017384141683578491, -0.0012935101985931396, 0.022390425205230713, 0.2339122675320605, 0.06669439245298237, 0.9699673261604894,-0.0006099821006208088,0.1279296875,-0.454986572265625,-0.859283447265625
20230118-1502,2023-01-18 15:02:59Z,u01, 36,100,movements,wr-su, rt, d,125778.92162904168, 0.14687633609325615, 0.4702744352098416, -0.03668018926016765, -0.05109986662864685, 0.061945848166942596, -0.05360595881938934, 0.13046176731586456, -0.45313096046447754, -0.8818458318710327, -0.004988729953765869, 0.005224376916885376, 0.03275531530380249, 0.23361793648681606, 0.06708009130339056, 0.9700116054093553,-0.0006952375467885082,0.1254730224609375,-0.447906494140625,-0.849090576171875
20230118-1502,2023-01-18 15:02:59Z,u01, 37,100,movements,wr-su, rt, d,125778.93165104167, 0.14764161761725764, 0.47021036370055613, -0.037164058160181, -0.03622831776738167, 0.06587161123752594, -0.05563480406999588, 0.13114087283611298, -0.4530738294124603, -0.8817744255065918, -0.010214939713478088, 0.012247323989868164, 0.04763752222061157, 0.23360345059790805, 0.06739585948139423, 0.9699930607426919,-0.0008429533400625515,0.1209259033203125,-0.440826416015625,-0.834136962890625
20230118-1502,2023-01-18 15:02:59Z,u01, 38,100,movements,wr-su, rt, d,125778.94167404168, 0.14836053907181398, 0.4702487291130889, -0.03763263016091238, -0.04069656878709793, 0.07089219987392426, -0.0640472024679184, 0.13177219033241272, -0.4531080424785614, -0.8816627860069275, -0.010113850235939026, 0.01850712299346924, 0.04894489049911499, 0.2336381782323316, 0.06768911154656326, 0.9699642199522571,-0.000984768747449731,0.1216583251953125,-0.434600830078125,-0.8327178955078125
20230118-1502,2023-01-18 15:02:59Z,u01, 39,100,movements,wr-su, rt, d,125778.95169704167, 0.14899428832468486, 0.4701232419181791, -0.038239966223172356, -0.05224588140845299, 0.03601864352822304, -0.08046119660139084, 0.13233935832977295, -0.452996164560318, -0.881635308265686, -0.0027006715536117554, 0.028542369604110718, 0.03256005048751831, 0.23359832105654424, 0.06792776975244265, 0.96995679612144,-0.0012100913796970376,0.129638671875,-0.4244537353515625,-0.8490753173828125
20230118-1502,2023-01-18 15:02:59Z,u01, 40,100,movements,wr-su, rt, d,125778.96171904168, 0.1493433691452467, 0.46950701572839476, -0.0390037279949167, -0.0850677415728569, 0.012102923355996609, -0.09831742942333221, 0.13268861174583435, -0.45244669914245605, -0.8818649053573608, 0.004686281085014343, 0.02692475914955139, 0.020536839962005615, 0.23332585624984353, 0.06801902835196971, 0.9700154960533356,-0.0015634681148278089,0.1373748779296875,-0.4255218505859375,-0.861328125
20230118-1502,2023-01-18 15:02:59Z,u01, 41,100,movements,wr-su, rt, d,125778.97174204167, 0.14969398244112214, 0.46835243963832157, -0.03987145635051525, -0.0948072075843811, 0.022206692025065422, -0.10436713695526123, 0.13307562470436096, -0.4514167606830597, -0.882334291934967, 0.00039301812648773193, 0.01800599694252014, 0.017038941383361816, 0.23279607631605112, 0.06810902684875948, 0.970135698813523,-0.001988059187774175,0.1334686279296875,-0.43341064453125,-0.86529541015625
20230118-1502,2023-01-18 15:02:59Z,u01, 42,100,movements,wr-su, rt, d,125778.98176504168, 0.150313680242437, 0.4671784204349428, -0.040800597010037055, -0.11338862031698227, 0.03451262786984444, -0.1076931580901146, 0.1337016522884369, -0.45036885142326355, -0.882775068283081, -0.013630226254463196, 0.012182146310806274, 0.00589829683303833, 0.23225934515734362, 0.06832328869591388, 0.9702483236927549,-0.0024122487150206318,0.1200714111328125,-0.4381866455078125,-0.8768768310546875
20230118-1502,2023-01-18 15:02:59Z,u01, 43,100,movements,wr-su, rt, d,125778.99178704167, 0.15113047025261134, 0.46603560728058707, -0.04187912380705347, -0.1375635266304016, 0.03920485079288483, -0.12151361256837845, 0.13450004160404205, -0.44934821128845215, -0.8831737637519836, -0.02005910873413086, 0.027915626764297485, 0.004633784294128418, 0.23174332978352774, 0.06861584667094094, 0.970349753223737,-0.0028853159605265292,0.11444091796875,-0.4214324951171875,-0.8785400390625
20230118-1502,2023-01-18 15:02:59Z,u01, 44,100,movements,wr-su, rt, d,125779.00181004168, 0.15183636669408218, 0.46463245131628317, -0.042833078924477914, -0.17024104297161102, 0.031790342181921005, -0.10642707347869873, 0.13521867990493774, -0.4480942487716675, -0.8837010264396667, -0.01189713180065155, 0.020802319049835205, 0.015796422958374023, 0.23109691353757802, 0.0688746253233568, 0.9704841671036372,-0.003321564969584072,0.123321533203125,-0.4272918701171875,-0.8679046630859375
20230118-1502,2023-01-18 15:02:59Z,u01, 45,100,movements,wr-su, rt, d,125779.01183304167, 0.1526185064716117, 0.4628609715352168, -0.04381827686561236, -0.19902022182941437, 0.0657227411866188, -0.1489657312631607, 0.13603027164936066, -0.44650986790657043, -0.8843781352043152, -0.008085310459136963, -0.02436119318008423, 0.03913283348083496, 0.23027329698475493, 0.06917464253838836, 0.9706569284483109,-0.003779383776295161,0.1279449462890625,-0.4708709716796875,-0.845245361328125
20230118-1502,2023-01-18 15:02:59Z,u01, 46,100,movements,wr-su, rt, d,125779.02185504168, 0.15390536420061418, 0.460981041587781, -0.04509579904906886, -0.1726623922586441, 0.08952181041240692, -0.13856396079063416, 0.1372966766357422, -0.44482696056365967, -0.8850303292274475, -0.0262736976146698, -0.037961214780807495, 0.04616314172744751, 0.22940851265156784, 0.06968917410683528, 0.9708226498884898,-0.004326370446493338,0.11102294921875,-0.4827880859375,-0.8388671875
20230118-1502,2023-01-18 15:02:59Z,u01, 47,100,movements,wr-su, rt, d,125779.03187804167, 0.15529568694034504, 0.4596554176545473, -0.046333816122973846, -0.045907407999038696, 0.07402940839529037, -0.12867271900177002, 0.1386180967092514, -0.4436393082141876, -0.8854203820228577, -0.020530328154563904, 0.023549526929855347, 0.015486359596252441, 0.22881203078021814, 0.07024864419931093, 0.9709207628674618,-0.004821347234763046,0.1180877685546875,-0.4200897216796875,-0.86993408203125
20230118-1502,2023-01-18 15:02:59Z,u01, 48,100,movements,wr-su, rt, d,125779.04190104168, 0.15656152192133585, 0.45926157934528544, -0.04781853193976579, 0.028546852990984917, 0.04315005615353584, -0.1378829926252365, 0.13976602256298065, -0.44328632950782776, -0.8854166865348816, 0.0017592757940292358, 0.041476547718048096, -0.003529787063598633, 0.228676557143614, 0.07070133568155536, 0.9709167090493177,-0.0054133226109171935,0.1415252685546875,-0.4018096923828125,-0.888946533203125
20230118-1502,2023-01-18 15:02:59Z,u01, 49,100,movements,wr-su, rt, d,125779.05192304167, 0.15747453028809427, 0.45947262830167473, -0.049353906962636696, 0.050507280975580215, 0.015571159310638905, -0.12835685908794403, 0.14055967330932617, -0.44347548484802246, -0.8851962685585022, 0.019413486123085022, 0.0322357714176178, -0.012829184532165527, 0.2288359350909681, 0.07096457036024272, 0.9708561240737621,-0.006045590452229781,0.15997314453125,-0.4112396240234375,-0.8980255126953125
20230118-1502,2023-01-18 15:02:59Z,u01, 50,100,movements,wr-su, rt, d,125779.06194604168, 0.15760520861649216, 0.4597042814805553, -0.05052856844421341, 0.04005756974220276, -0.003006520215421915, -0.12294159084558487, 0.14065921306610107, -0.44368311762809753, -0.8850764036178589, 0.02695859968662262, -0.004940658807754517, -0.025842726230621338, 0.22899035225922112, 0.07088867428417472, 0.9708217006949373,-0.006591308241650919,0.1676177978515625,-0.4486236572265625,-0.910919189453125
20230118-1502,2023-01-18 15:02:59Z,u01, 51,100,movements,wr-su, rt, d,125779.07196904167, 0.15731609234729232, 0.45947933555394316, -0.05160438602220418, 0.044787876307964325, -0.01624935492873192, -0.12294771522283554, 0.14041896164417267, -0.4434815049171448, -0.8852156400680542, 0.027580320835113525, -0.009063720703125, -0.019233763217926025, 0.2289183042563745, 0.07062997019558434, 0.9708536559755113,-0.007155893434225326,0.167999267578125,-0.452545166015625,-0.904449462890625
20230118-1502,2023-01-18 15:02:59Z,u01, 52,100,movements,wr-su, rt, d,125779.08199104168, 0.15688859380643305, 0.4595073673084584, -0.05266995078121832, 0.042804084718227386, -0.061661578714847565, -0.11003165692090988, 0.14003857970237732, -0.4435066282749176, -0.8852633237838745, 0.02707570791244507, -0.01276177167892456, -0.02434360980987549, 0.22896785274104015, 0.07029986869224478, 0.970861594827499,-0.007720931869686858,0.1671142578125,-0.456268310546875,-0.90960693359375
20230118-1502,2023-01-18 15:02:59Z,u01, 53,100,movements,wr-su, rt, d,125779.09201404167, 0.15642012005839132, 0.46151477853942496, -0.0538777191962106, 0.005379730835556984, -0.08859439194202423, -0.12020058929920197, 0.13948486745357513, -0.4453049302101135, -0.8844475746154785, 0.03670839965343475, -0.026649534702301025, -0.013913571834564209, 0.22998172034796968, 0.0698900449128333, 0.9706468647464356,-0.008278385014666448,0.1761932373046875,-0.471954345703125,-0.8983612060546875
20230118-1502,2023-01-18 15:02:59Z,u01, 54,100,movements,wr-su, rt, d,125779.10203704168, 0.15537790205834648, 0.46285736789348586, -0.0547756967101558, -0.05688124895095825, -0.07093150913715363, -0.10405038297176361, 0.1384703516960144, -0.44650664925575256, -0.8840010166168213, 0.03270275890827179, -0.0651511549949646, -0.0047013163566589355, 0.23065941471126586, 0.06925119019342277, 0.9705274289226268,-0.008779160532479235,0.171173095703125,-0.51165771484375,-0.888702392578125
20230118-1502,2023-01-18 15:02:59Z,u01, 55,100,movements,wr-su, rt, d,125779.11205904167, 0.15488789797065022, 0.46174072001344285, -0.055297945065926786, -0.08401162922382355, -0.01933143101632595, -0.03581087663769722, 0.13811400532722473, -0.4455071985721588, -0.8845608234405518, 0.026177391409873962, -0.10405340790748596, -0.0006319880485534668, 0.23013389783766527, 0.06897804438970204, 0.9706683727959754,-0.009134661624203788,0.1642913818359375,-0.549560546875,-0.88519287109375
20230118-1502,2023-01-18 15:02:59Z,u01, 56,100,movements,wr-su, rt, d,125779.12208204168, 0.15484925605990787, 0.4605046282493352, -0.05517148610790409, -0.07091926038265228, 0.017225248739123344, 0.031742602586746216, 0.13816465437412262, -0.44440022110939026, -0.8851096034049988, 0.026142001152038574, -0.1199461817741394, -0.009970903396606445, 0.22952998192673757, 0.06900130306622154, 0.970809842138331,-0.009128140779906091,0.164306640625,-0.5643463134765625,-0.89508056640625
20230118-1502,2023-01-18 15:02:59Z,u01, 57,100,movements,wr-su, rt, d,125779.13210504167, 0.15435062230552749, 0.46077008014881865, -0.05395246228562635, 0.3473213016986847, -0.135290265083313, 0.35769009590148926, 0.13770514726638794, -0.4446380138397217, -0.8850618004798889, 0.036718085408210754, -0.1086609959602356, -0.014016509056091309, 0.22961450605641828, 0.0688933463291746, 0.9708023646635233,-0.008582856270558045,0.1744232177734375,-0.5532989501953125,-0.899078369140625
20230118-1502,2023-01-18 15:02:59Z,u01, 58,100,movements,wr-su, rt, d,125779.14212704168, 0.15455164190932577, 0.4688006693878935, -0.05238770714196031, 0.5425395369529724, 0.36279141902923584, -0.010155580006539822, 0.13732895255088806, -0.4518166780471802, -0.881477415561676, 0.031097576022148132, -0.11112591624259949, -0.0160444974899292, 0.23345380529470755, 0.06899714892919309, 0.9698880700266552,-0.007474559102354884,0.168426513671875,-0.5629425048828125,-0.89752197265625
20230118-1502,2023-01-18 15:02:59Z,u01, 59,100,movements,wr-su, rt, d,125779.15215004167, 0.15967039658337565, 0.46634887939025466, -0.05204909875267469, -0.6596000790596008, 0.7066423296928406, 0.06782102584838867, 0.14201490581035614, -0.4496280550956726, -0.8818539381027222, -0.14024487137794495, -0.49655428528785706, 0.07864660024642944, 0.2322722957245791, 0.07157232698384611, 0.9699900363437952,-0.00681530532030928,0.00177001953125,-0.9461822509765625,-0.8032073974609375
20230118-1502,2023-01-18 15:02:59Z,u01, 60,100,movements,wr-su, rt, d,125779.16217304168, 0.16497244060010438, 0.4625518584134539, -0.04815608956902822, -0.24927036464214325, 0.6535207629203796, 0.4621294438838959, 0.1469678282737732, -0.44623327255249023, -0.8827663064002991, -0.005503565073013306, 0.07143154740333557, 0.18356287479400635, 0.23030492906370573, 0.07467587031061294, 0.9702387364145555,-0.004474461619597397,0.1414642333984375,-0.3748016357421875,-0.6992034912109375
20230118-1502,2023-01-18 15:02:59Z,u01, 61,100,movements,wr-su, rt, d,125779.17219504167, 0.16853793649047455, 0.4607220956039712, -0.04232676520148812, -0.3077866733074188, 0.6246047019958496, 0.4643276035785675, 0.1502510905265808, -0.4445950388908386, -0.8830401301383972, 0.06666786968708038, -0.10206642746925354, 0.015410184860229492, 0.22920198542771328, 0.07711279408915268, 0.970318691482106,-0.0013156988831663323,0.2169189453125,-0.546661376953125,-0.8676300048828125
20230118-1502,2023-01-18 15:02:59Z,u01, 62,100,movements,wr-su, rt, d,125779.18221804168, 0.17269647695407878, 0.45810457157671586, -0.03660573216630572, -0.3420186936855316, 0.7052779793739319, 0.4809590280056, 0.15412139892578125, -0.4422489106655121, -0.8835511207580566, 0.04247286915779114, -0.07683992385864258, 0.00798654556274414, 0.22770796345052896, 0.07983442474630092, 0.9704495862137787,0.0018207015328392424,0.19659423828125,-0.5190887451171875,-0.8755645751953125
20230118-1502,2023-01-18 15:02:59Z,u01, 63,100,movements,wr-su, rt, d,125779.19224125001, 0.17727434417798063, 0.4562470913198686, -0.030173029398409563, -0.23586347699165344, 0.7789764404296875, 0.5575246810913086, 0.15830913186073303, -0.44058218598365784, -0.8836433291435242, -0.02314676344394684, -0.053909480571746826, -0.005715131759643555, 0.22653747355661064, 0.08281968171064763, 0.9704600799191206,0.005379373051936524,0.135162353515625,-0.4944915771484375,-0.8893585205078125
20230118-1502,2023-01-18 15:02:59Z,u01, 64,100,movements,wr-su, rt, d,125779.20226325, 0.1827503027728683, 0.4544802901330353, -0.02386564441761238, -0.3459114134311676, 0.8784566521644592, 0.493979275226593, 0.1632867455482483, -0.4389954209327698, -0.8835273385047913, -0.0585351437330246, -0.04158022999763489, -0.01883167028427124, 0.22539445017850152, 0.08621883464381136, 0.9704036425277165,0.008978481600279588,0.1047515869140625,-0.4805755615234375,-0.9023590087890625
20230118-1502,2023-01-18 15:02:59Z,u01, 65,100,movements,wr-su, rt, d,125779.21228625001, 0.18933327077459053, 0.450779338235314, -0.017686842664043037, -0.5894665718078613, 0.964387059211731, 0.4476446509361267, 0.1694040149450302, -0.43566715717315674, -0.8840228915214539, -0.055802300572395325, -0.004426926374435425, 0.006306827068328857, 0.22329159077274105, 0.09016336962352588, 0.9704917074413048,0.012543233691512327,0.1136016845703125,-0.440093994140625,-0.877716064453125
20230118-1502,2023-01-18 15:02:59Z,u01, 66,100,movements,wr-su, rt, d,125779.22230925, 0.19656166963423988, 0.4445762085216127, -0.012449352033819217, -0.792262852191925, 0.8975776433944702, 0.22976453602313995, 0.17631401121616364, -0.4300753176212311, -0.8854086995124817, -0.026564225554466248, 0.016119539737701416, 0.017275214195251465, 0.21998962195446436, 0.0943409102214822, 0.9708044906617342,0.01558972219721914,0.149749755859375,-0.4139556884765625,-0.868133544921875
20230118-1502,2023-01-18 15:02:59Z,u01, 67,100,movements,wr-su, rt, d,125779.23233225, 0.20254218670496968, 0.4372276670876616, -0.008382635976035403, -0.7755351662635803, 0.6317600607872009, 0.19954164326190948, 0.18223686516284943, -0.42342954874038696, -0.8874103426933289, 0.04281504452228546, 0.0305003821849823, -0.004206418991088867, 0.21617723432224606, 0.09778663878458273, 0.9712807922057228,0.01785503542313945,0.2250518798828125,-0.3929290771484375,-0.8916168212890625
20230118-1502,2023-01-18 15:02:59Z,u01, 68,100,movements,wr-su, rt, d,125779.24235425, 0.20677129996904067, 0.4299265260255623, -0.005447425257538749, -0.7785837054252625, 0.4863772988319397, 0.0023529420141130686, 0.186617910861969, -0.4168040156364441, -0.8896337747573853, 0.1399507075548172, 0.02512606978416443, -0.033950209617614746, 0.21244636819218876, 0.10024803145067751, 0.9718240297414547,0.01936718676996049,0.326568603515625,-0.3916778564453125,-0.923583984375
20230118-1502,2023-01-18 15:02:59Z,u01, 69,100,movements,wr-su, rt, d,125779.25237725001, 0.2113653741966915, 0.4211214621182516, -0.004945490769292808, -0.9827121496200562, 0.4625545144081116, -0.26770883798599243, 0.19146551191806793, -0.4087841808795929, -0.8923208117485046, 0.03856074810028076, 0.030701816082000732, 0.005998849868774414, 0.208096598701878, 0.10264202668189946, 0.972509522634598,0.019642750080252527,0.2300262451171875,-0.378082275390625,-0.886322021484375
20230118-1502,2023-01-18 15:02:59Z,u01, 70,100,movements,wr-su, rt, d,125779.26240025001, 0.21609184437036977, 0.4094028460406902, -0.006202216497044683, -1.2590124607086182, 0.36902883648872375, -0.4435485601425171, 0.19669455289840698, -0.398061603307724, -0.8960235714912415, -0.01624409854412079, 0.04225704073905945, 0.05051887035369873, 0.20241592044319637, 0.10495718622879141, 0.9734755225849028,0.01890154877678677,0.180450439453125,-0.355804443359375,-0.8455047607421875
20230118-1502,2023-01-18 15:02:59Z,u01, 71,100,movements,wr-su, rt, d,125779.27242225001, 0.21957374574866223, 0.39444197487370425, -0.00831576215063747, -1.589924693107605, 0.14589454233646393, -0.5735904574394226, 0.20108796656131744, -0.3842930793762207, -0.9010452032089233, 0.04251861572265625, 0.00683632493019104, 0.06637424230575562, 0.19521028925809575, 0.10663175607505147, 0.9747920055357175,0.017416082459744076,0.2436065673828125,-0.3774566650390625,-0.8346710205078125
20230118-1502,2023-01-18 15:02:59Z,u01, 72,100,movements,wr-su, rt, d,125779.28244525, 0.22060647924522608, 0.37570180587883173, -0.00990464501310843, -1.9453096389770508, -0.047340694814920425, -0.46478885412216187, 0.20355872809886932, -0.3669254779815674, -0.9077056646347046, 0.05964013934135437, 0.011929690837860107, 0.08814090490341187, 0.1861463906028729, 0.10722261532292474, 0.9765274419601698,0.015721297462223928,0.2631988525390625,-0.3549957275390625,-0.8195648193359375
20230118-1502,2023-01-18 15:02:59Z,u01, 73,100,movements,wr-su, rt, d,125779.29246825, 0.21933822485599302, 0.35668340097399653, -0.00828595635583317, -1.7093819379806519, -0.03342647850513458, -0.07477686554193497, 0.20388904213905334, -0.3491683006286621, -0.9146096110343933, 0.09812819957733154, -0.046690523624420166, 0.15373015403747559, 0.1767767988791143, 0.10698198009302, 0.9782990423513819,0.015363152213957553,0.3020172119140625,-0.3958587646484375,-0.7608795166015625
20230118-1502,2023-01-18 15:02:59Z,u01, 74,100,movements,wr-su, rt, d,125779.30249025, 0.21780430352969382, 0.34214520941871257, -0.007406960074298944, -1.1489391326904297, -0.36501801013946533, -0.532993733882904, 0.20356133580207825, -0.3355087339878082, -0.9197807908058167, 0.05795904994010925, -0.08407750725746155, 0.20260250568389893, 0.1696263804317948, 0.10647301102557392, 0.979627046319855,0.01487489329819899,0.2615203857421875,-0.419586181640625,-0.7171783447265625
20230118-1502,2023-01-18 15:02:59Z,u01, 75,100,movements,wr-su, rt, d,125779.31251325001, 0.2119917682866975, 0.3293042273800029, -0.014943484283645468, -1.1196205615997314, -1.3836305141448975, -1.4053997993469238, 0.1991017907857895, -0.32338473200798035, -0.9250842332839966, 0.0537058562040329, 0.019841551780700684, 0.2577716112136841, 0.16376449775177324, 0.10314593694020313, 0.9810412044922598,0.010011443299567763,0.2528076171875,-0.3035430908203125,-0.6673126220703125
20230118-1502,2023-01-18 15:02:59Z,u01, 76,100,movements,wr-su, rt, d,125779.32253625001, 0.19744709463880122, 0.31193105049938613, -0.027342059475185025, -1.8208047151565552, -2.248689889907837, -1.4763737916946411, 0.18670019507408142, -0.3068970739841461, -0.933250904083252, 0.37535732984542847, 0.013699352741241455, 0.31476640701293945, 0.1558942358963104, 0.09524462835518248, 0.9831693818674927,0.001869877922102997,0.5620574951171875,-0.2931976318359375,-0.6184844970703125
20230118-1502,2023-01-18 15:02:59Z,u01, 77,100,movements,wr-su, rt, d,125779.33255825001, 0.17706015457456903, 0.2888655428098696, -0.036074536812861456, -2.4363925457000732, -2.206547260284424, -1.0193833112716675, 0.1688387095928192, -0.28486496210098267, -0.9435811638832092, 0.6202695965766907, 0.046507328748703, 0.372017502784729, 0.14492220155285487, 0.08489382903517739, 0.9857814733048267,-0.005055067359851222,0.7891082763671875,-0.2383575439453125,-0.571563720703125
20230118-1502,2023-01-18 15:02:59Z,u01, 78,100,movements,wr-su, rt, d,125779.34258125, 0.159256392955127, 0.2564446850223256, -0.039126913436745805, -3.985910415649414, -1.453905701637268, -0.674214243888855, 0.15339802205562592, -0.25364312529563904, -0.9550572037696838, 0.19398359954357147, -0.5746498107910156, 0.5289555191993713, 0.1289849845467611, 0.07638245854917436, 0.988657995873293,-0.00917068578701908,0.347381591796875,-0.8282928466796875,-0.4261016845703125
20230118-1502,2023-01-18 15:02:59Z,u01, 79,100,movements,wr-su, rt, d,125779.35260425, 0.14935425016989906, 0.20571852382738057, -0.03751889600365655, -6.049304962158203, -0.4401196837425232, -0.5736411809921265, 0.1456620842218399, -0.20427058637142181, -0.9680165648460388, -0.2248857021331787, -0.9687641859054565, 0.7012472152709961, 0.10376590783763297, 0.07227964136934105, 0.9919116103419141,-0.01094797588944936,-0.0792236328125,-1.17303466796875,-0.2667694091796875
20230118-1502,2023-01-18 15:02:59Z,u01, 80,100,movements,wr-su, rt, d,125779.36262625, 0.14829837066542956, 0.13652514341079738, -0.032018245161572, -7.693707466125488, 0.3619658648967743, -0.3801047205924988, 0.14638051390647888, -0.13610142469406128, -0.979820966720581, -0.3809385895729065, -0.9369577169418335, 0.7798545360565186, 0.06919658087932123, 0.072810314723409, 0.9948831554267679,-0.01087486670770028,-0.23455810546875,-1.07305908203125,-0.1999664306640625
20230118-1502,2023-01-18 15:02:59Z,u01, 81,100,movements,wr-su, rt, d,125779.37264925001, 0.1534634504239374, 0.0549981686095484, -0.022053945254721808, -8.544939041137695, 0.8565124869346619, -0.09812922030687332, 0.15263065695762634, -0.05497044697403908, -0.9867533445358276, -0.29214173555374146, -0.8358834981918335, 0.7646616697311401, 0.02825799951858441, 0.07632051470032038, 0.9966432558276337,-0.008882558551101125,-0.1395111083984375,-0.8908538818359375,-0.2220916748046875
20230118-1502,2023-01-18 15:02:59Z,u01, 82,100,movements,wr-su, rt, d,125779.38267225001, 0.16537521098770877, -0.025906617310691736, -0.007129527099356078, -7.601027488708496, 1.5712106227874756, 0.5681374669075012, 0.16456718742847443, 0.025903720408678055, -0.9860256910324097, -0.08282583951950073, -0.6375828385353088, 0.6373928785324097, -0.0126142077105606, 0.08263197407782158, 0.9964895805571072,-0.0046220995694143535,0.0817413330078125,-0.6116790771484375,-0.3486328125
20230118-1502,2023-01-18 15:02:59Z,u01, 83,100,movements,wr-su, rt, d,125779.39269425001, 0.18507385716501434, -0.08673124421422135, 0.014101592363151252, -4.8885273933410645, 2.0240416526794434, 1.4509751796722412, 0.18332743644714355, 0.08662255108356476, -0.9792280793190002, 0.05547262728214264, -0.22181546688079834, 0.25570207834243774, -0.04381638425274241, 0.09201138710957579, 0.9947889868535142,0.0030081299838414077,0.238800048828125,-0.13519287109375,-0.7235260009765625
20230118-1502,2023-01-18 15:02:59Z,u01, 84,100,movements,wr-su, rt, d,125779.40271725, 0.20683345175363838, -0.11345464736392179, 0.03621510656811971, -1.1603174209594727, 1.792128324508667, 1.7423555850982666, 0.20404158532619476, 0.11321140825748444, -0.9723940491676331, 0.08984272181987762, 0.4917232394218445, 0.07954126596450806, -0.058250917289832636, 0.10202842476827229, 0.9930005185056954,0.012128852366986728,0.29388427734375,0.6049346923828125,-0.892852783203125
20230118-1502,2023-01-18 15:02:59Z,u01, 85,100,movements,wr-su, rt, d,125779.41274025, 0.22351164293879705, -0.10390523889650428, 0.052230289316196804, 2.2329986095428467, 1.0883222818374634, 1.812119483947754, 0.22045981884002686, 0.10371837764978409, -0.9698659777641296, 0.15731731057167053, 1.1873124837875366, -0.16837865114212036, -0.054495896483292366, 0.1099873613498534, 0.9922338722842079,0.020124922822701417,0.377777099609375,1.2910308837890625,-1.13824462890625
20230118-1502,2023-01-18 15:02:59Z,u01, 86,100,movements,wr-su, rt, d,125779.42276225, 0.22993407594889598, -0.06489773958492663, 0.0632311229853719, 4.766396522521973, 0.028648877516388893, 2.070739507675171, 0.22743354737758636, 0.06485219299793243, -0.9716317057609558, 0.4267565608024597, 1.4095892906188965, -0.4734976887702942, -0.03583712956794676, 0.1135774882691534, 0.9924971345243244,0.027665265705161098,0.6541900634765625,1.4744415283203125,-1.44512939453125
20230118-1502,2023-01-18 15:02:59Z,u01, 87,100,movements,wr-su, rt, d,125779.43278525001, 0.22686523443965123, -0.004299577480819898, 0.07144601328026066, 6.521229267120361, -0.6482901573181152, 2.263350009918213, 0.22492212057113647, 0.00429956428706646, -0.9743672609329224, 0.7368241548538208, 1.0853610038757324, -0.49561870098114014, -0.006177208966403604, 0.11304075334593486, 0.9929459286214817,0.03524262054815998,0.9617462158203125,1.08966064453125,-1.4699859619140625
20230118-1502,2023-01-18 15:02:59Z,u01, 88,100,movements,wr-su, rt, d,125779.44280825001, 0.21808296497738966, 0.06899260488343732, 0.07882030327975827, 7.292733669281006, -1.0437136888504028, 2.387725353240967, 0.21584366261959076, -0.06893788278102875, -0.973991334438324, 0.6615825295448303, 0.5716233849525452, -0.4107895493507385, 0.029972831783531828, 0.11002713815682348, 0.9925502223833415,0.042893064676924365,0.8774261474609375,0.502685546875,-1.3847808837890625
20230118-1502,2023-01-18 15:02:59Z,u01, 89,100,movements,wr-su, rt, d,125779.45283025001, 0.2056482739992608, 0.14442469953048143, 0.08683636068237537, 6.924357891082764, -1.2226570844650269, 2.301410436630249, 0.20207583904266357, -0.14392314851284027, -0.9687370657920837, 0.3855248689651489, 0.0817740261554718, -0.20779186487197876, 0.06725733010301992, 0.10539413425497217, 0.9908694167618745,0.05046144071120998,0.5876007080078125,-0.0621490478515625,-1.1765289306640625
20230118-1502,2023-01-18 15:02:59Z,u01, 90,100,movements,wr-su, rt, d,125779.46285325, 0.19281016871872575, 0.20978666587027275, 0.09607425475107713, 5.4051384925842285, -0.9404117465019226, 2.059159278869629, 0.18741659820079803, -0.2082512527704239, -0.9599512815475464, 0.18494364619255066, -0.3997200131416321, 0.006566882133483887, 0.09949803176576832, 0.10062060774786756, 0.9882600725919284,0.05759945103814092,0.3723602294921875,-0.60797119140625,-0.9533843994140625
20230118-1502,2023-01-18 15:02:59Z,u01, 91,100,movements,wr-su, rt, d,125779.47287625, 0.18402037654228992, 0.2580447609269112, 0.10710865492666707, 3.6777942180633545, -0.2958173453807831, 1.8424853086471558, 0.17692509293556213, -0.25519055128097534, -0.950565755367279, 0.02998410165309906, -0.7009099721908569, 0.05170106887817383, 0.12305941875934545, 0.09784421696913788, 0.9854447827354456,0.0646640868163053,0.2069091796875,-0.9561004638671875,-0.89886474609375
20230118-1502,2023-01-18 15:02:59Z,u01, 92,100,movements,wr-su, rt, d,125779.48289825, 0.18065930416819972, 0.2910125892760076, 0.11878817137725214, 2.479430675506592, 0.2239789515733719, 1.546715497970581, 0.17212340235710144, -0.2869223952293396, -0.9423635601997375, -0.09595154225826263, -0.7305489778518677, 0.030849337577819824, 0.13884961980254254, 0.09766783304474805, 0.9828847750792568,0.07154879307675693,0.076171875,-1.0174713134765625,-0.9115142822265625
20230118-1502,2023-01-18 15:02:59Z,u01, 93,100,movements,wr-su, rt, d,125779.49292125001, 0.18087290763235328, 0.3148391326531271, 0.12973280184264846, 1.8780410289764404, 0.4442969560623169, 1.3898730278015137, 0.17104612290859222, -0.3096635043621063, -0.935335099697113, -0.12612423300743103, -0.5762923955917358, -0.019941389560699463, 0.1500193935789055, 0.09912938672718152, 0.9806126980397807,0.07788644239120106,0.044921875,-0.885955810546875,-0.9552764892578125
20230118-1502,2023-01-18 15:02:59Z,u01, 94,100,movements,wr-su, rt, d,125779.50294425001, 0.18161224500861317, 0.33429288773831156, 0.14169938467540516, 1.5406590700149536, 0.4079306721687317, 1.5789079666137695, 0.17061711847782135, -0.3281012773513794, -0.9291067719459534, -0.016839027404785156, -0.44348999857902527, -0.09132474660873413, 0.15893821977880485, 0.10092210058144184, 0.9784692639026541,0.08456501450977925,0.153778076171875,-0.7715911865234375,-1.0204315185546875
20230118-1502,2023-01-18 15:02:59Z,u01, 95,100,movements,wr-su, rt, d,125779.51296625001, 0.17951341610680063, 0.3509647511594161, 0.15667641984054628, 1.2327220439910889, 0.18597085773944855, 1.7401461601257324, 0.16766662895679474, -0.34380391240119934, -0.9239517450332642, 0.13781432807445526, -0.3180614113807678, -0.22851407527923584, 0.16644004145429214, 0.10159650311223176, 0.9764466302281163,0.09234704371014092,0.30548095703125,-0.661865234375,-1.1524658203125
20230118-1502,2023-01-18 15:02:59Z,u01, 96,100,movements,wr-su, rt, d,125779.52298925, 0.17558495951827874, 0.36464268097265073, 0.1721913697426824, 0.9455174207687378, 0.13550634682178497, 1.574216604232788, 0.16319887340068817, -0.35661548376083374, -0.9198867082595825, 0.21810302138328552, -0.20493856072425842, -0.24158179759979248, 0.17253107707973656, 0.10143804249915411, 0.9746425473520252,0.10007702277262945,0.3813018798828125,-0.561553955078125,-1.161468505859375
20230118-1502,2023-01-18 15:02:59Z,u01, 97,100,movements,wr-su, rt, d,125779.53301225, 0.17198111993475124, 0.3754514001389042, 0.1862710558245581, 0.7502743005752563, 0.16493667662143707, 1.3822338581085205, 0.15921372175216675, -0.36669251322746277, -0.9166174530982971, 0.13761551678180695, -0.0988074541091919, -0.2860649824142456, 0.17728260561635273, 0.101302223530258, 0.9730685078188488,0.10698818471729389,0.2968292236328125,-0.4654998779296875,-1.2026824951171875
20230118-1502,2023-01-18 15:02:59Z,u01, 98,100,movements,wr-su, rt, d,125779.54303525001, 0.16906590948573438, 0.3848957193270036, 0.19878728463656056, 0.7371068000793457, 0.1668512225151062, 1.230751633644104, 0.15595121681690216, -0.37546250224113464, -0.9136230945587158, 0.054177552461624146, -0.02689659595489502, -0.2785918116569519, 0.18141502722789177, 0.10137577457132012, 0.9716046111696676,0.11311939986741024,0.2101287841796875,-0.4023590087890625,-1.1922149658203125
20230118-1502,2023-01-18 15:02:59Z,u01, 99,100,movements,wr-su, rt, d,125779.55305725001, 0.16622634083068938, 0.39498172747840526, 0.20998906457266484, 0.9194672107696533, 0.09924394637346268, 1.1565965414047241, 0.15272192656993866, -0.3847913146018982, -0.9102811217308044, 0.03950829803943634, 0.01825985312461853, -0.28651148080825806, 0.185924250544949, 0.10144765523989942, 0.9700889356889183,0.11860898387756616,0.192230224609375,-0.3665313720703125,-1.1967926025390625
20230118-1502,2023-01-18 15:02:59Z,u01, 100,100,movements,wr-su, rt, d,125779.56308025001, 0.16242051410551017, 0.40697266999315135, 0.22039116477594442, 1.1207894086837769, -0.04887653887271881, 1.1051157712936401, 0.14849962294101715, -0.39583107829093933, -0.9062370657920837, 0.05821119248867035, 0.07022368907928467, -0.3159003257751465, 0.1914601981200713, 0.10111602285045604, 0.968416861630207,0.12364266899094922,0.2067108154296875,-0.3256072998046875,-1.222137451171875
20230118-1502,2023-01-18 15:02:59Z,u01, 101,100,movements,wr-su, rt, d,125779.57310325, 0.15768639872567844, 0.4203687440901047, 0.2293918064767128, 1.2460081577301025, -0.16249658167362213, 0.9306178689002991, 0.1433621495962143, -0.40809711813926697, -0.9016119241714478, 0.0717104822397232, 0.1618354618549347, -0.30015498399734497, 0.1978100076768795, 0.10032563963434173, 0.9666679857274301,0.1279030874781417,0.2150726318359375,-0.2462615966796875,-1.2017669677734375
20230118-1502,2023-01-18 15:02:59Z,u01, 102,100,movements,wr-su, rt, d,125779.58312525, 0.1527970305366931, 0.4343094599995632, 0.23633564010426875, 1.2997092008590698, -0.23498941957950592, 0.7542758584022522, 0.13807274401187897, -0.420784056186676, -0.8965917229652405, 0.05392858386039734, 0.23770907521247864, -0.24702394008636475, 0.20453870770808338, 0.0993381343793857, 0.9649372794276989,0.13111793753198275,0.1920013427734375,-0.183074951171875,-1.14361572265625
20230118-1502,2023-01-18 15:02:59Z,u01, 103,100,movements,wr-su, rt, d,125779.59314825, 0.1480996686050363, 0.4482160960099412, 0.24176628610607148, 1.277706503868103, -0.2397381067276001, 0.6395667791366577, 0.1329832524061203, -0.4333585202693939, -0.8913561701774597, 0.011593788862228394, 0.26082730293273926, -0.2070629596710205, 0.2113121055793089, 0.09833155202073955, 0.9632427489773416,0.1335727149916858,0.1445770263671875,-0.1725311279296875,-1.098419189453125
20230118-1502,2023-01-18 15:02:59Z,u01, 104,100,movements,wr-su, rt, d,125779.60317125001, 0.1440643607518924, 0.46134432914088813, 0.24614578069228266, 1.1776063442230225, -0.17825983464717865, 0.5177929401397705, 0.12855736911296844, -0.44515228271484375, -0.8861785531044006, -0.038911983370780945, 0.2398146688938141, -0.1567901372909546, 0.2177129884590158, 0.09752829766326429, 0.9616240018519243,0.1355310465270437,0.0896453857421875,-0.2053375244140625,-1.04296875
20230118-1502,2023-01-18 15:02:59Z,u01, 105,100,movements,wr-su, rt, d,125779.61319325001, 0.1414049358257955, 0.47305177722064706, 0.24938308776264695, 1.0452877283096313, -0.0642528384923935, 0.38695794343948364, 0.1254570633172989, -0.45560503005981445, -0.8812971115112305, -0.09187246859073639, 0.20992320775985718, -0.10739606618881226, 0.22338521779706574, 0.09721357904252334, 0.9601415759128455,0.13702905585172492,0.0335845947265625,-0.2456817626953125,-0.9886932373046875
20230118-1502,2023-01-18 15:02:59Z,u01, 106,100,movements,wr-su, rt, d,125779.62321625001, 0.14049920549133293, 0.4834066902009328, 0.2514900099534364, 0.9429123401641846, 0.07284669578075409, 0.2790977954864502, 0.123991459608078, -0.4647982120513916, -0.8766919374465942, -0.1369766891002655, 0.17565935850143433, -0.08751088380813599, 0.22833410977349541, 0.09755801290400876, 0.9587827623691126,0.13813621858088637,-0.0129852294921875,-0.2891387939453125,-0.964202880859375
20230118-1502,2023-01-18 15:02:59Z,u01, 107,100,movements,wr-su, rt, d,125779.63323925, 0.1412152623274105, 0.4929119937861038, 0.25279623701227755, 0.9029790759086609, 0.17371125519275665, 0.22151295840740204, 0.12399174273014069, -0.4731932282447815, -0.8721892833709717, -0.16726568341255188, 0.14805889129638672, -0.08987724781036377, 0.23279446142659022, 0.0985498983027324, 0.9574796990857339,0.13902244283703086,-0.04327392578125,-0.32513427734375,-0.962066650390625
20230118-1502,2023-01-18 15:02:59Z,u01, 108,100,movements,wr-su, rt, d,125779.64326125, 0.142949372002066, 0.5019931617558527, 0.253357395727993, 0.863887369632721, 0.21243175864219666, 0.12385430932044983, 0.12488668411970139, -0.4811737537384033, -0.8676837682723999, -0.1742030829191208, 0.14201655983924866, -0.10108143091201782, 0.23701045107146396, 0.09992071751700358, 0.95620919440741,0.1396637497413467,-0.04931640625,-0.3391571044921875,-0.9687652587890625
20230118-1502,2023-01-18 15:02:59Z,u01, 109,100,movements,wr-su, rt, d,125779.65328425, 0.14570778932774278, 0.5104331237811469, 0.2525341548141892, 0.8199770450592041, 0.25032028555870056, -0.01481304969638586, 0.1266854703426361, -0.4885551929473877, -0.863287091255188, -0.1773293912410736, 0.15286174416542053, -0.09043294191360474, 0.24091117701072287, 0.1015787639645991, 0.9550450754250305,0.1397592367541185,-0.0506439208984375,-0.335693359375,-0.9537200927734375
20230118-1502,2023-01-18 15:02:59Z,u01, 110,100,movements,wr-su, rt, d,125779.66330725001, 0.149244148324997, 0.5181615544309751, 0.25051237804374993, 0.7361684441566467, 0.2462477684020996, -0.09944138675928116, 0.12917228043079376, -0.4952838718891144, -0.8590742349624634, -0.18302053213119507, 0.13586297631263733, -0.08201158046722412, 0.24447465060780757, 0.10341683668725811, 0.9539980837690268,0.1393736514405391,-0.0538482666015625,-0.3594207763671875,-0.9410858154296875
20230118-1502,2023-01-18 15:02:59Z,u01, 111,100,movements,wr-su, rt, d,125779.68335225001, 0.15685929995083933, 0.5298722265816707, 0.24399873836157346, 0.5114509463310242, 0.18862788379192352, -0.27284738421440125, 0.13479508459568024, -0.5054230690002441, -0.8522779941558838, -0.16624344885349274, 0.11124277114868164, -0.040071189403533936, 0.24990024557285137, 0.10682167609815417, 0.9524944546003693,0.13745289401704447,-0.0379180908203125,-0.406463623046875,-0.91998291015625
20230118-1502,2023-01-18 15:02:59Z,u01, 112,100,movements,wr-su, rt, d,125779.67332925001, 0.1529639378099481, 0.5246650220381625, 0.2476961788308789, 0.6108552813529968, 0.213189959526062, -0.1889019012451172, 0.13187336921691895, -0.5009230971336365, -0.8553861379623413, -0.16979146003723145, 0.0944594144821167, -0.06459671258926392, 0.24747948754651547, 0.10517045563727183, 0.9531409593538559,0.1386199174029468,-0.0314483642578125,-0.3941802978515625,-0.8923492431640625
20230118-1502,2023-01-18 15:02:59Z,u01, 113,100,movements,wr-su, rt, d,125779.69337525, 0.16087759989746198, 0.5341508871520048, 0.23963598401922132, 0.449975848197937, 0.16999028623104095, -0.32562971115112305, 0.13787102699279785, -0.5091103911399841, -0.849587082862854, -0.18012261390686035, 0.15696799755096436, -0.025809645652770996, 0.25190823420654784, 0.10839143876789495, 0.952000226496588,0.13597475440826123,-0.0422515869140625,-0.352142333984375,-0.875396728515625
20230118-1502,2023-01-18 15:02:59Z,u01, 114,100,movements,wr-su, rt, d,125779.70339725, 0.1649589455572811, 0.5378735126918891, 0.23478561785293156, 0.414559006690979, 0.1442665457725525, -0.3723684549331665, 0.1410251259803772, -0.5123109221458435, -0.8471419215202332, -0.1836429238319397, 0.21891486644744873, -0.0002396106719970703, 0.2536782723159481, 0.10989253335777047, 0.9516001324465673,0.13426921731605046,-0.0426177978515625,-0.29339599609375,-0.847381591796875
20230118-1502,2023-01-18 15:03:00Z,u01, 115,100,movements,wr-su, rt, d,125779.71342025, 0.16900015554296707, 0.5412534448282312, 0.22948538152823442, 0.39010292291641235, 0.1122063547372818, -0.40523475408554077, 0.1441553831100464, -0.5152106881141663, -0.844853401184082, -0.17967785894870758, 0.257810115814209, 0.015263617038726807, 0.2553185767158417, 0.11129121514212736, 0.9512684476974934,0.13234497295005765,-0.0355224609375,-0.2574005126953125,-0.82958984375
20230118-1502,2023-01-18 15:03:00Z,u01, 116,100,movements,wr-su, rt, d,125779.72344325001, 0.17274382091051024, 0.5444010841532004, 0.22400504306890867, 0.3823677599430084, 0.06122998893260956, -0.4025212526321411, 0.14703772962093353, -0.5179058313369751, -0.842706024646759, -0.16255593299865723, 0.2573466897010803, 0.006829619407653809, 0.25688443803985095, 0.11250493805884956, 0.9509865010479969,0.130299091607831,-0.0155181884765625,-0.26055908203125,-0.83587646484375
20230118-1502,2023-01-18 15:03:00Z,u01, 117,100,movements,wr-su, rt, d,125779.73346525001, 0.1759224518517024, 0.5476873891935504, 0.21848308412490555, 0.41025716066360474, -0.010465235449373722, -0.4124542772769928, 0.1494169533252716, -0.520714282989502, -0.8405541777610779, -0.1401548683643341, 0.2432483434677124, 0.002602517604827881, 0.2585618598495597, 0.11344024548673556, 0.950709902528088,0.12817159501700928,0.0092620849609375,-0.2774658203125,-0.83795166015625
20230118-1502,2023-01-18 15:03:00Z,u01, 118,100,movements,wr-su, rt, d,125779.74348825001, 0.17856050954820948, 0.5510800394851163, 0.21250969825172422, 0.409302681684494, -0.09564724564552307, -0.465935617685318, 0.151319220662117, -0.5236076712608337, -0.8384137153625488, -0.123700812458992, 0.22777020931243896, 0.003239154815673828, 0.2603553819436258, 0.11405358636962341, 0.9504678741671263,0.12576908867741113,0.027618408203125,-0.29583740234375,-0.835174560546875
20230118-1502,2023-01-18 15:03:00Z,u01, 119,100,movements,wr-su, rt, d,125779.75351125, 0.18066577664174466, 0.5541056296129506, 0.20586529354944938, 0.3599345088005066, -0.19245927035808563, -0.5284115672111511, 0.1527986079454422, -0.5261829495429993, -0.8365309834480286, -0.1112336665391922, 0.200880765914917, -0.0038467049598693848, 0.26204928288368856, 0.11430077644103624, 0.9503384682069669,0.12297351104194429,0.04156494140625,-0.3253021240234375,-0.8403778076171875
20230118-1502,2023-01-18 15:03:00Z,u01, 120,100,movements,wr-su, rt, d,125779.76353325, 0.18219285465242402, 0.5566706474932462, 0.19876257599266148, 0.3408529460430145, -0.25611335039138794, -0.5549790263175964, 0.15383082628250122, -0.5283624529838562, -0.8349666595458984, -0.09870082139968872, 0.14437490701675415, 0.0069942474365234375, 0.2635875238495925, 0.11418537569822794, 0.9503228654329379,0.11987501085580628,0.0551300048828125,-0.3839874267578125,-0.827972412109375
20230118-1502,2023-01-18 15:03:00Z,u01, 121,100,movements,wr-su, rt, d,125779.77355625, 0.18324161653142237, 0.5589606984570951, 0.19155624382262681, 0.30180931091308594, -0.3022821843624115, -0.5653889179229736, 0.1544855386018753, -0.5303053855895996, -0.8336129188537598, -0.0951593667268753, 0.09762704372406006, 0.014872074127197266, 0.2650300648713748, 0.11380956458976633, 0.9503668892438176,0.11665874100946318,0.059326171875,-0.43267822265625,-0.8187408447265625
20230118-1502,2023-01-18 15:03:00Z,u01, 122,100,movements,wr-su, rt, d,125779.78357925001, 0.18399911299342753, 0.5607049947240156, 0.18406201902850297, 0.25174668431282043, -0.34876418113708496, -0.6163599491119385, 0.15494747459888458, -0.531783401966095, -0.8325849771499634, -0.09830684959888458, 0.10508650541305542, 0.018818557262420654, 0.26624494619557704, 0.11323042516135848, 0.9505086409954184,0.113251947314843,0.056640625,-0.42669677734375,-0.8137664794921875
20230118-1502,2023-01-18 15:03:00Z,u01, 123,100,movements,wr-su, rt, d,125779.79360125001, 0.18458161222325545, 0.5617724124474457, 0.17612846196788393, 0.1891404539346695, -0.37784725427627563, -0.6560190320014954, 0.1553281545639038, -0.5326870679855347, -0.8319361209869385, -0.08791483938694, 0.09494286775588989, 0.026272118091583252, 0.26717000223995463, 0.11248171735242025, 0.9507668437105454,0.10959242686767223,0.067413330078125,-0.437744140625,-0.8056640625
20230118-1502,2023-01-18 15:03:00Z,u01, 124,100,movements,wr-su, rt, d,125779.80362425001, 0.18494627980679845, 0.5621120981343974, 0.1681094134253735, 0.12309751659631729, -0.401093453168869, -0.659041166305542, 0.1555982530117035, -0.5329744815826416, -0.8317015171051025, -0.0697217732667923, 0.07505816221237183, 0.023351967334747314, 0.2677618110711272, 0.11159231701214586, 0.9511303955860035,0.10583928978731054,0.08587646484375,-0.457916259765625,-0.808349609375
20230118-1502,2023-01-18 15:03:00Z,u01, 125,100,movements,wr-su, rt, d,125779.81364725, 0.1849838109488143, 0.5620470178651891, 0.16022919934973254, 0.11272486299276352, -0.4280579388141632, -0.648295521736145, 0.15563584864139557, -0.5329194068908691, -0.8317297697067261, -0.051403045654296875, 0.07123416662216187, 0.02536386251449585, 0.26816641306059796, 0.11055264465202513, 0.9515471095167402,0.10209380239215679,0.1042327880859375,-0.4616851806640625,-0.806365966796875
20230118-1502,2023-01-18 15:03:00Z,u01, 126,100,movements,wr-su, rt, d,125779.82366925, 0.18472019700740133, 0.5620801147816191, 0.15249489477507924, 0.1303161084651947, -0.4481576383113861, -0.6359027624130249, 0.15541334450244904, -0.5329474210739136, -0.8317534327507019, -0.034533217549324036, 0.07081961631774902, 0.03381037712097168, 0.2686207150986006, 0.10939009022707741, 0.9519445736289421,0.09837898063808939,0.120880126953125,-0.462127685546875,-0.797943115234375
20230118-1502,2023-01-18 15:03:00Z,u01, 127,100,movements,wr-su, rt, d,125779.83369225, 0.18424833887468975, 0.5622955099502053, 0.14479416122385624, 0.14918237924575806, -0.4661549925804138, -0.634395956993103, 0.15499980747699738, -0.5331296920776367, -0.8317137956619263, -0.02311810851097107, 0.07608312368392944, 0.046374499797821045, 0.26916523490312144, 0.10813503564942528, 0.9523114045449003,0.09465680253615655,0.1318817138671875,-0.4570465087890625,-0.78533935546875
20230118-1502,2023-01-18 15:03:00Z,u01, 128,100,movements,wr-su, rt, d,125779.84371525001, 0.18360577501353176, 0.5628560284856117, 0.13714327699066037, 0.1992436945438385, -0.47668567299842834, -0.6074790954589844, 0.15441077947616577, -0.5336037874221802, -0.8315193057060242, -0.013221189379692078, 0.0618935227394104, 0.048255205154418945, 0.26987410401846607, 0.1068097340097302, 0.9526220051713803,0.09094579675087199,0.1411895751953125,-0.471710205078125,-0.78326416015625
20230118-1502,2023-01-18 15:03:00Z,u01, 129,100,movements,wr-su, rt, d,125779.85373825, 0.18266483192592872, 0.5640371791118025, 0.12980450323895848, 0.2539595067501068, -0.4892387390136719, -0.5692822933197021, 0.15351369976997375, -0.5346024036407471, -0.8310438394546509, -0.0012920349836349487, 0.036585986614227295, 0.049030959606170654, 0.270870061725267, 0.10539210812073845, 0.9528323711284101,0.08736353406501422,0.1522216796875,-0.498016357421875,-0.782012939453125
20230118-1502,2023-01-18 15:03:00Z,u01, 130,100,movements,wr-su, rt, d,125779.86376025001, 0.18170297137708666, 0.5656505177985772, 0.12273468072639898, 0.2670265734195709, -0.4546101987361908, -0.5442451238632202, 0.15255822241306305, -0.5359651446342468, -0.8303417563438416, 0.0049124956130981445, 0.013473570346832275, 0.05290651321411133, 0.2720525719405858, 0.10400249034881057, 0.95295769643682,0.08392076964527587,0.157470703125,-0.522491455078125,-0.777435302734375
20230118-1502,2023-01-18 15:03:00Z,u01, 131,100,movements,wr-su, rt, d,125779.87378325, 0.18093952314117998, 0.5670827225718963, 0.11603828191783813, 0.21188798546791077, -0.41295650601387024, -0.511765718460083, 0.1517859548330307, -0.5371736884117126, -0.8297020196914673, 0.0095909982919693, -0.012615799903869629, 0.04822319746017456, 0.27311475222500026, 0.10274881618037635, 0.9530699928324057,0.08067609906247533,0.161376953125,-0.5497894287109375,-0.7814788818359375
20230118-1502,2023-01-18 15:03:00Z,u01, 132,100,movements,wr-su, rt, d,125779.88380625001, 0.18030175833252665, 0.5679841549358794, 0.10987506837061306, 0.14957614243030548, -0.3784182369709015, -0.47206518054008484, 0.15116988122463226, -0.5379338264465332, -0.8293219804763794, 0.025053873658180237, -0.03799402713775635, 0.032233357429504395, 0.2738857601918773, 0.1016150115113646, 0.9532189368341278,0.0776835282633291,0.1762237548828125,-0.575927734375,-0.797088623046875
20230118-1502,2023-01-18 15:03:00Z,u01, 133,100,movements,wr-su, rt, d,125779.89382825, 0.17962381011549863, 0.5684303464519673, 0.10421658113573772, 0.10698684304952621, -0.36871713399887085, -0.45102471113204956, 0.15056471526622772, -0.5383098721504211, -0.8291879892349243, 0.05211779475212097, -0.05949902534484863, 0.018229186534881592, 0.27441087025068017, 0.10052203793433077, 0.9534057682420274,0.07490933742899841,0.2026824951171875,-0.597808837890625,-0.8109588623046875
20230118-1502,2023-01-18 15:03:00Z,u01, 134,100,movements,wr-su, rt, d,125779.90385125001, 0.1788077270520919, 0.568618542818186, 0.09884126320615302, 0.09774567186832428, -0.3729451596736908, -0.4339999258518219, 0.14986994862556458, -0.5384684801101685, -0.8292108774185181, 0.08038519322872162, -0.05964559316635132, 0.009615600109100342, 0.2747995116950759, 0.09939712482826976, 0.9536176465751907,0.07224130884862001,0.230255126953125,-0.598114013671875,-0.8195953369140625
20230118-1502,2023-01-18 15:03:00Z,u01, 135,100,movements,wr-su, rt, d,125779.91387425, 0.1776794385188061, 0.568933458875752, 0.09362211308633177, 0.11400721967220306, -0.4237303137779236, -0.41654905676841736, 0.14890429377555847, -0.5387338399887085, -0.829212486743927, 0.10611587762832642, -0.044564008712768555, 0.011478781700134277, 0.2752478290420811, 0.09814471100414097, 0.9538138294613915,0.06960868341421864,0.2550201416015625,-0.5832977294921875,-0.8177337646484375
20230118-1502,2023-01-18 15:03:00Z,u01, 136,100,movements,wr-su, rt, d,125779.92389625001, 0.1759122768987383, 0.5693421046444896, 0.08844281640369572, 0.10991367697715759, -0.489380419254303, -0.42959722876548767, 0.1474001705646515, -0.5390780568122864, -0.8292575478553772, 0.1242825835943222, -0.028350651264190674, 0.017749428749084473, 0.2757556519271391, 0.0965922196295951, 0.9540187933526022,0.06690963659023333,0.2716827392578125,-0.5674285888671875,-0.8115081787109375
20230118-1502,2023-01-18 15:03:00Z,u01, 137,100,movements,wr-su, rt, d,125779.93391925, 0.1736126822260422, 0.5695881075078655, 0.08314580070203006, 0.08518536388874054, -0.5353212356567383, -0.4317237436771393, 0.14546990394592285, -0.5392852425575256, -0.8294636607170105, 0.13683295249938965, -0.033133089542388916, 0.03860068321228027, 0.27620198106255356, 0.09476624395088029, 0.9542674340004316,0.06407407480837737,0.2823028564453125,-0.572418212890625,-0.790863037109375
20230118-1502,2023-01-18 15:03:00Z,u01, 138,100,movements,wr-su, rt, d,125779.94394225001, 0.17092195036662888, 0.5696300166005979, 0.07816560628000602, 0.06159082055091858, -0.5390198826789856, -0.38782259821891785, 0.14323367178440094, -0.5393205285072327, -0.8298298120498657, 0.13836729526519775, -0.06024312973022461, 0.0599324107170105, 0.2765398971242447, 0.0927943267907779, 0.9545438091383548,0.061327180529461435,0.2816009521484375,-0.5995635986328125,-0.7698974609375
20230118-1502,2023-01-18 15:03:00Z,u01, 139,100,movements,wr-su, rt, d,125779.95396425, 0.16796096377979902, 0.5694594621345018, 0.0737178520931191, 0.024843385443091393, -0.5376906991004944, -0.35490116477012634, 0.14079131186008453, -0.539176881313324, -0.8303409814834595, 0.12600862979888916, -0.06981676816940308, 0.06853073835372925, 0.2767513307162092, 0.09076460683148777, 0.9548374431613814,0.05878846894337611,0.2667999267578125,-0.6089935302734375,-0.761810302734375
20230118-1502,2023-01-18 15:03:00Z,u01, 140,100,movements,wr-su, rt, d,125779.96398725001, 0.16474105982861273, 0.5689340607995911, 0.06963340321372588, -0.02083595283329487, -0.547285795211792, -0.334785521030426, 0.13816340267658234, -0.5387343168258667, -0.8310693502426147, 0.11868780851364136, -0.061821162700653076, 0.059783339500427246, 0.2767759381681988, 0.08865900429694738, 0.9551736309108361,0.056374259676700095,0.2568511962890625,-0.600555419921875,-0.7712860107421875
20230118-1502,2023-01-18 15:03:00Z,u01, 141,100,movements,wr-su, rt, d,125779.97401025, 0.1611867169086956, 0.5680466769227319, 0.06592654459946477, -0.05396341159939766, -0.5651984810829163, -0.30598184466362, 0.13528530299663544, -0.5379865169525146, -0.8320266604423523, 0.12470920383930206, -0.05704528093338013, 0.04915928840637207, 0.27661179516049395, 0.0864440649890811, 0.9555566598103057,0.05408138550091284,0.2599945068359375,-0.59503173828125,-0.782867431640625
20230118-1502,2023-01-18 15:03:00Z,u01, 142,100,movements,wr-su, rt, d,125779.98403225001, 0.15854945152757102, 0.5705763408632293, 0.061810597189341815, 1.3600449562072754, -0.24663755297660828, -0.32019567489624023, 0.13287527859210968, -0.5401172041893005, -0.8310340642929077, 0.1287977248430252, -0.044843852519989014, 0.03812640905380249, 0.27806797168903685, 0.08462364295644836, 0.9554215589900372,0.051834869536791166,0.2616729736328125,-0.5849609375,-0.79290771484375
20230118-1502,2023-01-18 15:03:00Z,u01, 143,100,movements,wr-su, rt, d,125779.99405525, 0.1530523451416265, 0.5731156712799491, 0.05894438424090646, -0.723863959312439, -0.8393551707267761, -0.04505894333124161, 0.12809549272060394, -0.5422525405883789, -0.8303937911987305, 0.10769858956336975, -0.041487812995910645, 0.19929033517837524, 0.27954144098925615, 0.08160693415529047, 0.9553631417189618,0.04978335139523207,0.2357940673828125,-0.583740234375,-0.631103515625
20230118-1502,2023-01-18 15:03:00Z,u01, 144,100,movements,wr-su, rt, d,125780.00407825001, 0.15041743271685348, 0.5676284818837425, 0.057795085622120934, -0.3931235671043396, -0.07009607553482056, -0.30840376019477844, 0.1263510137796402, -0.5376339554786682, -0.8336577415466309, 0.1309884637594223, -0.07790565490722656, -0.052862584590911865, 0.2770270056846724, 0.08016964648406741, 0.9562731157550096,0.048690460251066964,0.2573394775390625,-0.61553955078125,-0.8865203857421875
20230118-1502,2023-01-18 15:03:00Z,u01, 145,100,movements,wr-su, rt, d,125780.01410025, 0.15303021445368337, 0.5613658317358369, 0.0563995063444467, -0.7755292057991028, 0.36088594794273376, -0.09362048655748367, 0.129039466381073, -0.5323429107666016, -0.8366360664367676, -0.1044575423002243, -0.2233791947364807, 0.18748146295547485, 0.27402059754383146, 0.08120765250398458, 0.9570772651928352,0.04817983015387021,0.0245819091796875,-0.7557220458984375,-0.6491546630859375
20230118-1502,2023-01-18 15:03:00Z,u01, 146,100,movements,wr-su, rt, d,125780.02412325001, 0.15759981501309436, 0.5533699372463656, 0.05700628088507185, -0.8365169763565063, 0.6089285612106323, -0.08235877752304077, 0.13352499902248383, -0.5255572199821472, -0.840214729309082, -0.07557210326194763, -0.08384841680526733, 0.14838123321533203, 0.27005180209018653, 0.08345459990004221, 0.957978955275572,0.048824889399410036,0.057952880859375,-0.609405517578125,-0.69183349609375
20230118-1502,2023-01-18 15:03:00Z,u01, 148,100,movements,wr-su, rt, d,125780.03414625001, 0.16423224841474218, 0.5436948228296455, 0.05752468198383208, -1.0900218486785889, 0.7447686791419983, -0.1447223573923111, 0.13991951942443848, -0.5173015594482422, -0.8442876935005188, -0.0019037425518035889, -0.14750874042510986, 0.11906802654266357, 0.2652237179162498, 0.08667490804071955, 0.9590002419634702,0.049624150325694616,0.1380157470703125,-0.6648101806640625,-0.7252197265625
20230118-1502,2023-01-18 15:03:00Z,u01, 148,100,movements,wr-su, rt, d,125780.04416825001, 0.17147266074232206, 0.5323265246209435, 0.057740774689806, -1.1277889013290405, 0.7068276405334473, -0.19741593301296234, 0.1470227986574173, -0.5075393319129944, -0.8489924669265747, 0.009379804134368896, -0.13674789667129517, 0.10884970426559448, 0.2595715356880879, 0.09014645368148626, 0.9601927928725688,0.05026197458502622,0.156402587890625,-0.644287109375,-0.740142822265625
20230118-1502,2023-01-18 15:03:00Z,u01, 149,100,movements,wr-su, rt, d,125780.05419125, 0.17795442519165397, 0.5216907648717203, 0.057579200399385945, -0.9408159255981445, 0.5661384463310242, -0.2023264616727829, 0.1534695327281952, -0.4983467161655426, -0.8532863855361938, 0.03818085789680481, -0.10494014620780945, 0.07807892560958862, 0.2542994052237009, 0.09321271927571481, 0.9612918379819088,0.050609079424108125,0.191650390625,-0.6032867431640625,-0.77520751953125
20230118-1502,2023-01-18 15:03:00Z,u01, 150,100,movements,wr-su, rt, d,125780.06421425001, 0.18259244191500326, 0.5140611001889983, 0.056913424379858565, -0.5391526222229004, 0.27307406067848206, -0.1737358272075653, 0.15811124444007874, -0.49171751737594604, -0.8562796115875244, 0.06129489839076996, -0.04969492554664612, 0.046755075454711914, 0.250539781727009, 0.0953416258196545, 0.9620719566000879,0.0505703478593115,0.2194061279296875,-0.541412353515625,-0.8095245361328125
20230118-1502,2023-01-18 15:03:00Z,u01, 151,100,movements,wr-su, rt, d,125780.07423625, 0.18247136778130552, 0.5108078752658205, 0.0559571258320234, -0.019390292465686798, -0.496957391500473, -0.09706784784793854, 0.15829701721668243, -0.4888821542263031, -0.8578673005104065, 0.09950023889541626, 0.0064144134521484375, -0.0061157941818237305, 0.24902095050479828, 0.09515727551364894, 0.9625162190985259,0.049963329845901544,0.2577972412109375,-0.4824676513671875,-0.863983154296875
20230118-1502,2023-01-18 15:03:00Z,u01, 152,100,movements,wr-su, rt, d,125780.08425925001, 0.16997168237682359, 0.5166999687836832, 0.053504078562229204, 1.262137532234192, -2.1306746006011963, -0.2048124223947525, 0.14707203209400177, -0.49401360750198364, -0.8569249510765076, 0.2549512982368469, 0.15874740481376648, -0.06989383697509766, 0.252277289689109, 0.08884644730540454, 0.9623987352415089,0.04744656820468807,0.4020233154296875,-0.33526611328125,-0.92681884765625
20230118-1502,2023-01-18 15:03:00Z,u01, 153,100,movements,wr-su, rt, d,125780.09428225001, 0.15026515484541136, 0.5315863217248592, 0.04650992725033431, 1.6510648727416992, -2.4028429985046387, -0.4698713421821594, 0.12904226779937744, -0.5069013833999634, -0.8522905111312866, 0.7491620779037476, 0.7786450982093811, -0.2120557427406311, 0.26017865201758866, 0.07849718526563051, 0.9614439001786778,0.04208455541824527,0.878204345703125,0.2717437744140625,-1.0643463134765625
20230118-1502,2023-01-18 15:03:00Z,u01, 154,100,movements,wr-su, rt, d,125780.10430525, 0.13286541729543727, 0.5437326702578387, 0.039546321198363564, 0.8455286622047424, -1.7056388854980469, -0.32683268189430237, 0.11336980015039444, -0.5173339247703552, -0.8482410311698914, 0.42642512917518616, 0.19645678997039795, -0.04474902153015137, 0.2666206660633329, 0.06923079578719718, 0.9606061984602573,0.036826221984237864,0.539794921875,-0.3208770751953125,-0.8929901123046875
20230118-1502,2023-01-18 15:03:00Z,u01, 155,100,movements,wr-su, rt, d,125780.11432725, 0.12268072079950859, 0.547642842505415, 0.0365047091493747, 0.028448203578591347, -0.6358180642127991, -0.09271812438964844, 0.10447665303945541, -0.5206762552261353, -0.847337543964386, -0.12367219477891922, -0.4066462516784668, 0.08154475688934326, 0.26878174110373343, 0.0639343424735414, 0.9604713829763047,0.03411236268690755,-0.019195556640625,-0.9273223876953125,-0.7657928466796875
20230118-1502,2023-01-18 15:03:00Z,u01, 156,100,movements,wr-su, rt, d,125780.12435025001, 0.12097978998336269, 0.5456045280821753, 0.03657546118447523, -0.3854861259460449, 0.22755157947540283, 0.052430011332035065, 0.10316310822963715, -0.518934965133667, -0.8485658168792725, -0.41461023688316345, -0.39865243434906006, 0.15709859132766724, 0.2678287554096437, 0.0631256981811066, 0.9607998134452599,0.03386344913857592,-0.3114471435546875,-0.9175872802734375,-0.69146728515625
20230118-1502,2023-01-18 15:03:00Z,u01, 157,100,movements,wr-su, rt, d,125780.13437325001, 0.12408606357732638, 0.5415497676181688, 0.03802757858485588, -0.42751607298851013, 0.44071871042251587, 0.08451023697853088, 0.1060580387711525, -0.5154646039009094, -0.8503222465515137, -0.3878420889377594, -0.17394286394119263, 0.17440372705459595, 0.2657793552847616, 0.06480895766879556, 0.9612209038044179,0.03486615742999616,-0.2817840576171875,-0.6894073486328125,-0.6759185791015625
20230118-1502,2023-01-18 15:03:00Z,u01, 158,100,movements,wr-su, rt, d,125780.14439525001, 0.1267766239045707, 0.5377401867051181, 0.03891943188226834, -0.3470475971698761, 0.13842862844467163, -0.038356829434633255, 0.10859300196170807, -0.51219642162323, -0.8519756197929382, -0.09785079956054688, -0.02938389778137207, 0.10998654365539551, 0.2638702237998856, 0.06621700016120051, 0.9616260089684406,0.03554584646303116,0.0107421875,-0.5415802001953125,-0.7419891357421875
20230118-1502,2023-01-18 15:03:00Z,u01, 159,100,movements,wr-su, rt, d,125780.15441825001, 0.12668432346810302, 0.5347738713386196, 0.03794605369520283, -0.22606199979782104, -0.2527487277984619, -0.18604135513305664, 0.10870584100484848, -0.509646475315094, -0.8534890413284302, 0.1510140299797058, 0.03595256805419922, 0.044895291328430176, 0.26247656836264444, 0.06604199024849482, 0.9620398855703077,0.03498258758769776,0.2597198486328125,-0.47369384765625,-0.80859375
20230118-1502,2023-01-18 15:03:00Z,u01, 160,100,movements,wr-su, rt, d,125780.16444125, 0.12423393313096735, 0.5328638723489367, 0.03572671507861184, -0.11571205407381058, -0.43870607018470764, -0.22155115008354187, 0.10673455893993378, -0.5080022215843201, -0.8547171950340271, 0.20559760928153992, 0.07422530651092529, 0.015544891357421875, 0.26167150846687803, 0.06457111607209844, 0.9624103219854208,0.033540635774344865,0.3123321533203125,-0.43377685546875,-0.83917236328125
20230118-1502,2023-01-18 15:03:00Z,u01, 161,100,movements,wr-su, rt, d,125780.17446325, 0.12118386710514988, 0.5317919736518104, 0.03341706550635142, -0.06295178830623627, -0.3925817012786865, -0.19023647904396057, 0.10419289022684097, -0.5070786476135254, -0.8555787801742554, 0.11838708072900772, 0.07017368078231812, 0.021655499935150146, 0.26127885276333235, 0.0628009600182822, 0.9626865315120566,0.032001033012621825,0.2225799560546875,-0.4369049072265625,-0.83392333984375
20230118-1502,2023-01-18 15:03:00Z,u01, 162,100,movements,wr-su, rt, d,125780.18448625001, 0.11893202226648784, 0.5309970144160193, 0.03160236441037909, -0.0691862478852272, -0.2499380111694336, -0.1337103545665741, 0.10231379419565201, -0.506393313407898, -0.856211245059967, 0.006038874387741089, 0.032546818256378174, 0.022074341773986816, 0.26098768786531606, 0.061480028888629135, 0.9628896016580234,0.030812113675024427,0.1083526611328125,-0.473846435546875,-0.834136962890625
20230118-1502,2023-01-18 15:03:00Z,u01, 163,100,movements,wr-su, rt, d,125780.194508375, 0.11753676008291193, 0.5302092229054888, 0.030392512941631592, -0.0706295520067215, -0.1693454384803772, -0.09572694450616837, 0.10116580873727798, -0.5057138204574585, -0.8567490577697754, -0.03994753211736679, 0.014441847801208496, 0.007368683815002441, 0.26066636877249666, 0.06065067444324564, 0.9630539671005698,0.03002677301088222,0.06121826171875,-0.49127197265625,-0.8493804931640625
20230118-1502,2023-01-18 15:03:00Z,u01, 164,100,movements,wr-su, rt, d,125780.204530375, 0.11635759203320391, 0.5295129929320838, 0.029303222848576636, -0.054432470351457596, -0.19861091673374176, -0.11077699810266495, 0.10019633919000626, -0.5051130652427673, -0.8572172522544861, -0.016608677804470062, 0.037415921688079834, -0.004629552364349365, 0.26038127395695443, 0.05994126029566273, 0.9631969413095802,0.029330337843300365,0.083587646484375,-0.4676971435546875,-0.861846923828125
20230118-1502,2023-01-18 15:03:00Z,u01, 165,100,movements,wr-su, rt, d,125780.214553375, 0.1146839598620168, 0.5289791664682728, 0.027895862124480145, -0.032230302691459656, -0.2860134541988373, -0.13689206540584564, 0.09879237413406372, -0.5046523213386536, -0.8576515316963196, 0.022957511246204376, 0.06831187009811401, -0.016738057136535645, 0.26019002293507604, 0.05895237117558818, 0.9633369892344925,0.028420815374746174,0.1217498779296875,-0.43634033203125,-0.8743896484375
20230118-1502,2023-01-18 15:03:00Z,u01, 166,100,movements,wr-su, rt, d,125780.22457637501, 0.11237387402689333, 0.5284712282195857, 0.02625781606507609, -0.0501704216003418, -0.3381408452987671, -0.14743632078170776, 0.09683959186077118, -0.5042136907577515, -0.8581320643424988, 0.04508241266012192, 0.06050330400466919, 0.0015189647674560547, 0.26002519638990984, 0.05762700748061017, 0.9634934946595526,0.027318315358266083,0.1419219970703125,-0.4437103271484375,-0.8566131591796875
20230118-1502,2023-01-18 15:03:00Z,u01, 167,100,movements,wr-su, rt, d,125780.23459837501, 0.10997090567309059, 0.5276898353991338, 0.024642770623314353, -0.08040468394756317, -0.30121344327926636, -0.1360240876674652, 0.09482046216726303, -0.5035387873649597, -0.8587536215782166, 0.021390482783317566, 0.022215425968170166, 0.030201435089111328, 0.25972671717191026, 0.056260285651188895, 0.9636856003392864,0.026208300297244483,0.1162109375,-0.4813232421875,-0.82855224609375
20230118-1502,2023-01-18 15:03:00Z,u01, 168,100,movements,wr-su, rt, d,125780.24462137501, 0.10797889487498938, 0.5265560924575005, 0.02342145478837263, -0.12121923267841339, -0.22294394671916962, -0.09679199010133743, 0.09317109733819962, -0.5025589466094971, -0.8595078587532043, -0.01936431974172592, -0.01074683666229248, 0.04659593105316162, 0.2592398246752177, 0.05514335258900706, 0.9639047542935962,0.02533326521045785,0.0738067626953125,-0.5133056640625,-0.8129119873046875
20230118-1502,2023-01-18 15:03:00Z,u01, 169,100,movements,wr-su, rt, d,125780.254644375, 0.1065448967635972, 0.5252116644338454, 0.022511229591929482, -0.1358860284090042, -0.16454268991947174, -0.08590932935476303, 0.09201023727655411, -0.5013961791992188, -0.8603115677833557, -0.045531950891017914, -0.0126115083694458, 0.05316746234893799, 0.2586344491556724, 0.05433623579288982, 0.9641301499087017,0.02467608618668036,0.046478271484375,-0.514007568359375,-0.8071441650390625
20230118-1502,2023-01-18 15:03:00Z,u01, 170,100,movements,wr-su, rt, d,125780.264666375, 0.10551572548616604, 0.5239049972261962, 0.02172411546660313, -0.11139640212059021, -0.1281079798936844, -0.07154237478971481, 0.09119369834661484, -0.5002651810646057, -0.8610566258430481, -0.04517318308353424, -0.003809034824371338, 0.05524003505706787, 0.25803811190615517, 0.05374039333760243, 0.9643370718751606,0.024132105900621176,0.0460205078125,-0.5040740966796875,-0.805816650390625
20230118-1502,2023-01-18 15:03:00Z,u01, 171,100,movements,wr-su, rt, d,125780.274689375, 0.10465433153834496, 0.522806254355126, 0.021130369812308977, -0.10334417968988419, -0.11323156207799911, -0.051542460918426514, 0.0905093252658844, -0.49931350350379944, -0.8616809844970703, -0.030206583440303802, 0.011154264211654663, 0.03927809000015259, 0.2575343117253364, 0.05325027627003355, 0.9645094208497322,0.023708419883754005,0.060302734375,-0.4881591796875,-0.8224029541015625
20230118-1502,2023-01-18 15:03:00Z,u01, 172,100,movements,wr-su, rt, d,125780.28471237501, 0.10376250526295552, 0.5217742910344765, 0.02067704963587767, -0.0970415472984314, -0.11505556106567383, -0.043856579810380936, 0.08979414403438568, -0.4984191060066223, -0.8622733950614929, -0.014415711164474487, 0.03186631202697754, 0.011183977127075195, 0.25705894784240596, 0.05276356535181658, 0.9646717486063268,0.023350481276817336,0.07537841796875,-0.466552734375,-0.8510894775390625
20230118-1502,2023-01-18 15:03:00Z,u01, 173,100,movements,wr-su, rt, d,125780.29473437501, 0.10273893974544197, 0.5207558899038635, 0.020436216273134307, -0.11322388052940369, -0.11766839027404785, -0.020125122740864754, 0.08896351605653763, -0.49753597378730774, -0.8628693222999573, -0.0015916675329208374, 0.038292109966278076, -0.00883471965789795, 0.2565857615666714, 0.05224061728073609, 0.9648327009989648,0.02307883186974803,0.087371826171875,-0.4592437744140625,-0.8717041015625
20230118-1502,2023-01-18 15:03:00Z,u01, 174,100,movements,wr-su, rt, d,125780.30475737501, 0.1016454556640289, 0.519507946249956, 0.020485586461552515, -0.1406480371952057, -0.10416882485151291, 0.007498248480260372, 0.08808285742998123, -0.49645307660102844, -0.8635830879211426, 0.0011810734868049622, 0.03817051649093628, -0.028521955013275146, 0.25599480343848835, 0.051721411830641, 0.9650210956762094,0.022933370730745233,0.089263916015625,-0.458282470703125,-0.8921051025390625
20230118-1502,2023-01-18 15:03:00Z,u01, 175,100,movements,wr-su, rt, d,125780.314780375, 0.1004367745803349, 0.5179367365425894, 0.020822409003607635, -0.18258364498615265, -0.10886424779891968, 0.01978178694844246, 0.08711710572242737, -0.4950885474681854, -0.8644639849662781, -0.0007370859384536743, 0.03103816509246826, -0.04625678062438965, 0.2552415726575735, 0.051183534757701016, 0.9652499042624847,0.022905166262742006,0.0863800048828125,-0.46405029296875,-0.9107208251953125
20230118-1502,2023-01-18 15:03:00Z,u01, 176,100,movements,wr-su, rt, d,125780.324802375, 0.0990842015424166, 0.5160045281637002, 0.02125881841911838, -0.20898036658763885, -0.1261574774980545, 0.018785765394568443, 0.08604224026203156, -0.49340882897377014, -0.865531325340271, 0.006273441016674042, 0.02508598566055298, -0.04373985528945923, 0.25431302045775833, 0.050588745210965486, 0.9655264895315906,0.02289954175962124,0.092315673828125,-0.46832275390625,-0.909271240234375
20230118-1502,2023-01-18 15:03:00Z,u01, 177,100,movements,wr-su, rt, d,125780.334825375, 0.09605591917306708, 0.5158145833121146, 0.02238326367971747, -0.2008756548166275, -0.14726383984088898, 0.011984609067440033, 0.08342976868152618, -0.49324360489845276, -0.8658812046051025, 0.011434122920036316, 0.024966567754745483, -0.028619468212127686, 0.2542280232463572, 0.04926987604613575, 0.9656133677736676,0.02305319436318897,0.0948638916015625,-0.4682769775390625,-0.894500732421875
20230118-1502,2023-01-18 15:03:00Z,u01, 178,100,movements,wr-su, rt, d,125780.34484837501, 0.09302301672514107, 0.5153381490943144, 0.02327187030338498, -0.19568009674549103, -0.16693474352359772, -0.008222658187150955, 0.080825075507164, -0.4928291141986847, -0.8663641214370728, 0.008179455995559692, 0.02426213026046753, -0.01664668321609497, 0.2540113043753936, 0.04791862423482383, 0.965737618385813,0.023086694799047812,0.0890045166015625,-0.46856689453125,-0.8830108642578125
20230118-1502,2023-01-18 15:03:00Z,u01, 179,100,movements,wr-su, rt, d,125780.35487037501, 0.09068344629763837, 0.5140337892125225, 0.0235220183801161, -0.19187748432159424, -0.16754141449928284, -0.042322732508182526, 0.07885608077049255, -0.49169373512268066, -0.8671903014183044, -0.00330980122089386, 0.030679851770401, 0.006030082702636719, 0.2534021716315799, 0.04682077022014555, 0.9659563395005786,0.02288369854487262,0.0755462646484375,-0.4610137939453125,-0.8611602783203125
20230118-1502,2023-01-18 15:03:00Z,u01, 180,100,movements,wr-su, rt, d,125780.36489337501, 0.08925451200610623, 0.5116065876985497, 0.023206532104309823, -0.19437898695468903, -0.13384708762168884, -0.053031302988529205, 0.07772298902273178, -0.4895787537097931, -0.8684881925582886, -0.016397908329963684, 0.022491872310638428, 0.02305978536605835, 0.25225291721175014, 0.046090765889842615, 0.9663010882741686,0.022501470334316948,0.0613250732421875,-0.4670867919921875,-0.845428466796875
20230118-1502,2023-01-18 15:03:00Z,u01, 181,100,movements,wr-su, rt, d,125780.374916375, 0.08865242961810418, 0.5086543808688131, 0.022601849193435164, -0.19608739018440247, -0.09950829297304153, -0.058586519211530685, 0.07732770591974258, -0.487002432346344, -0.8699707388877869, -0.027660340070724487, 0.012392967939376831, 0.01033639907836914, 0.25084645817623114, 0.045723969667487055, 0.966694485442604,0.022074285690370107,0.0496673583984375,-0.474609375,-0.8596343994140625
20230118-1502,2023-01-18 15:03:00Z,u01, 182,100,movements,wr-su, rt, d,125780.38493937501, 0.08840724790239048, 0.5057630054749036, 0.02192763527574672, -0.14446015655994415, -0.06558175384998322, -0.05699075385928154, 0.07723840326070786, -0.4844750761985779, -0.8713886141777039, -0.02749474346637726, 0.01667100191116333, -0.010996580123901367, 0.24946636185945562, 0.04552159723884612, 0.9670704345100668,0.021659789476455586,0.04974365234375,-0.467803955078125,-0.88238525390625
20230118-1502,2023-01-18 15:03:00Z,u01, 183,100,movements,wr-su, rt, d,125780.394961375, 0.08822771293074502, 0.5036544266471654, 0.02134339721507398, -0.06131044775247574, -0.05790625512599945, -0.04917192831635475, 0.07717179507017136, -0.4826293885707855, -0.8724181056022644, -0.02254532277584076, 0.03186941146850586, -0.03703618049621582, 0.24846160087999755, 0.045362634149193455, 0.9673442309242202,0.02131268218664595,0.05462646484375,-0.4507598876953125,-0.909454345703125
20230118-1502,2023-01-18 15:03:00Z,u01, 184,100,movements,wr-su, rt, d,125780.40498437501, 0.08813466000237262, 0.5026044262615654, 0.020603811845900696, 0.019008895382285118, -0.0857892856001854, -0.05812680721282959, 0.07713518291711807, -0.4817095100879669, -0.8729296326637268, -0.009584508836269379, 0.057759225368499756, -0.05692565441131592, 0.24797131616813667, 0.045226267204689, 0.9674849435265368,0.02092234878584833,0.0675506591796875,-0.4239501953125,-0.9298553466796875
20230118-1502,2023-01-18 15:03:00Z,u01, 185,100,movements,wr-su, rt, d,125780.415007375, 0.08792262034354098, 0.5023677541717825, 0.019578227182314712, 0.06782954186201096, -0.12640142440795898, -0.06886935979127884, 0.07696009427309036, -0.48150208592414856, -0.8730595111846924, 0.007359981536865234, 0.06914851069450378, -0.05626171827316284, 0.24788211639539043, 0.04499670024293506, 0.9675297829352935,0.02039518447094579,0.084320068359375,-0.412353515625,-0.9293212890625
20230118-1502,2023-01-18 15:03:00Z,u01, 186,100,movements,wr-su, rt, d,125780.42502937501, 0.08741287980092877, 0.50247690477959, 0.018523783180433108, 0.07329940795898438, -0.1430477797985077, -0.06385596096515656, 0.0765104591846466, -0.48159775137901306, -0.8730462789535522, 0.012585625052452087, 0.0597379207611084, -0.047943711280822754, 0.24796367690120238, 0.04461930212943957, 0.9675382441886137,0.01982407775654001,0.0890960693359375,-0.4218597412109375,-0.920989990234375
20230118-1502,2023-01-18 15:03:00Z,u01, 187,100,movements,wr-su, rt, d,125780.435052375, 0.08635940172439327, 0.502411663053304, 0.01774836601076325, 0.037805065512657166, -0.14128424227237701, -0.06312502920627594, 0.07559338957071304, -0.48154059052467346, -0.8731576800346375, 0.0026384294033050537, 0.03491571545600891, -0.027110815048217773, 0.24795959292760142, 0.04401357971145832, 0.9675773102114781,0.019317036642225956,0.0782318115234375,-0.446624755859375,-0.9002685546875
20230118-1502,2023-01-18 15:03:00Z,u01, 188,100,movements,wr-su, rt, d,125780.44507537501, 0.08467542716096245, 0.502449501338046, 0.017409598243184828, -0.03624066710472107, -0.11268161982297897, -0.05393072962760925, 0.0741213709115982, -0.4815737307071686, -0.8732655644416809, -0.010995745658874512, 0.0001741349697113037, -0.010889649391174316, 0.24800139264250493, 0.043156833056351755, 0.9676125460098302,0.01894508715335685,0.0631256103515625,-0.4813995361328125,-0.8841552734375
20230118-1502,2023-01-18 15:03:00Z,u01, 189,100,movements,wr-su, rt, d,125780.455097375, 0.0824686308002011, 0.5017546305578605, 0.01765381656524342, -0.10584713518619537, -0.09340060502290726, -0.02991892397403717, 0.07222162187099457, -0.48096463084220886, -0.8737602829933167, -0.014406055212020874, -0.0333634614944458, 0.0028344392776489258, 0.24768074575270305, 0.04212002377343982, 0.9677435759737797,0.018776482692191423,0.0578155517578125,-0.5143280029296875,-0.8709259033203125
20230118-1502,2023-01-18 15:03:00Z,u01, 190,100,movements,wr-su, rt, d,125780.46512037501, 0.08071538461841418, 0.4997789660030209, 0.01802409586975282, -0.18291129171848297, -0.07788582146167755, -0.011850175447762012, 0.07076606899499893, -0.4792315661907196, -0.8748310208320618, -0.010325990617275238, -0.04457223415374756, 0.023558497428894043, 0.2467331611103761, 0.041318775690360535, 0.9680215903127275,0.018702118895189815,0.0604400634765625,-0.5238037109375,-0.8512725830078125
20230118-1502,2023-01-18 15:03:00Z,u01, 191,100,movements,wr-su, rt, d,125780.475143375, 0.07920767643588257, 0.49649114852588055, 0.018561490885887162, -0.24876467883586884, -0.07754946500062943, 0.027475550770759583, 0.06957129389047623, -0.4763432741165161, -0.8765026926994324, -0.00760534405708313, -0.04248616099357605, 0.04225897789001465, 0.2451442444183586, 0.040656582172860486, 0.9684529962678551,0.018716903589202836,0.0619659423828125,-0.518829345703125,-0.8342437744140625
20230118-1502,2023-01-18 15:03:00Z,u01, 192,100,movements,wr-su, rt, d,125780.48516537501, 0.07773680430419251, 0.49242548435895167, 0.019604924178362834, -0.29540249705314636, -0.09374122321605682, 0.11183623969554901, 0.06843183189630508, -0.4727645814418793, -0.8785276412963867, 0.0018654242157936096, -0.07302713394165039, 0.05684185028076172, 0.24316744447093835, 0.04007225818593936, 0.9689706458083757,0.0189701670568668,0.0702972412109375,-0.5457916259765625,-0.821685791015625
20230118-1502,2023-01-18 15:03:00Z,u01, 193,100,movements,wr-su, rt, d,125780.495188375, 0.07598693376736974, 0.48841219682258874, 0.02166858615439205, -0.31859830021858215, -0.0964970588684082, 0.2221003770828247, 0.0670379102230072, -0.46922433376312256, -0.8805307745933533, 0.021722473204135895, -0.1064288318157196, 0.06609296798706055, 0.2411980604572216, 0.03947279037882015, 0.9694729657193815,0.019688582720284294,0.0887603759765625,-0.575653076171875,-0.8144378662109375
20230118-1502,2023-01-18 15:03:00Z,u01, 194,100,movements,wr-su, rt, d,125780.50521137501, 0.07346299274455627, 0.48492930133732204, 0.025054407835455466, -0.29481494426727295, -0.1392759531736374, 0.3555724322795868, 0.06493484973907471, -0.4661458134651184, -0.8823217153549194, 0.05376327782869339, -0.11686208844184875, 0.07656610012054443, 0.23946853720311992, 0.038651873219985936, 0.9699079109804094,0.020968655388869946,0.1186981201171875,-0.5830078125,-0.805755615234375
20230118-1502,2023-01-18 15:03:00Z,u01, 195,100,movements,wr-su, rt, d,125780.515233375, 0.06898423407109464, 0.4822197936307095, 0.03018647731923887, -0.2685244679450989, -0.31479477882385254, 0.5245696902275085, 0.061069339513778687, -0.4637469947338104, -0.8838604688644409, 0.10233704745769501, -0.13332954049110413, 0.05994695425033569, 0.2381059093051643, 0.03708561340133903, 0.9702612654558583,0.02288084239112405,0.1634063720703125,-0.597076416015625,-0.82391357421875
20230118-1502,2023-01-18 15:03:00Z,u01, 196,100,movements,wr-su, rt, d,125780.52525637501, 0.06131353700777093, 0.48004866352550324, 0.03733130056257208, -0.27465665340423584, -0.5621011853218079, 0.7102846503257751, 0.054349351674318314, -0.4618223309516907, -0.8853057622909546, 0.17231997847557068, -0.190811425447464, 0.028631627559661865, 0.23701742700972736, 0.034203022014768596, 0.9705707897904495,0.0254064778270204,0.2266693115234375,-0.6526336669921875,-0.8566741943359375
20230118-1502,2023-01-18 15:03:00Z,u01, 197,100,movements,wr-su, rt, d,125780.535279375, 0.04998777727620195, 0.4775471387155503, 0.04668438763954198, -0.32176467776298523, -0.8479862213134766, 0.9227292537689209, 0.044376906007528305, -0.45960211753845215, -0.8870155811309814, 0.2277483493089676, -0.2660601735115051, -0.00832432508468628, 0.23580612435714296, 0.029794099337446957, 0.9709228056700876,0.028579909987143447,0.272125244140625,-0.7256622314453125,-0.8953399658203125
20230118-1502,2023-01-18 15:03:00Z,u01, 198,100,movements,wr-su, rt, d,125780.54530137501, 0.034755439148926204, 0.4746689904166223, 0.05869086982092732, -0.3540078401565552, -1.0976999998092651, 1.1898237466812134, 0.0309067964553833, -0.4570440649986267, -0.8889069557189941, 0.2495650053024292, -0.36516064405441284, -0.03734731674194336, 0.2344803730780029, 0.023779914806856664, 0.9712831992013555,0.03259818007546446,0.2804718017578125,-0.82220458984375,-0.9262542724609375
20230118-1502,2023-01-18 15:03:00Z,u01, 199,100,movements,wr-su, rt, d,125780.555324375, 0.01584767252826817, 0.47103339103775643, 0.07368880936343462, -0.46700212359428406, -1.312843918800354, 1.4560986757278442, 0.014121267013251781, -0.45380738377571106, -0.8909879326820374, 0.26113203167915344, -0.4837079346179962, -0.05304276943206787, 0.23289593217698784, 0.016295038463228197, 0.9716353734067824,0.037665760257907535,0.2752532958984375,-0.9375152587890625,-0.94403076171875
20230118-1502,2023-01-18 15:03:00Z,u01, 200,100,movements,wr-su, rt, d,125780.56534737501, -0.006305353172420575, 0.4654623993924432, 0.09127473050671826, -0.6891699433326721, -1.5492138862609863, 1.6723511219024658, -0.005634515546262264, -0.4488360583782196, -0.893596351146698, 0.26147863268852234, -0.5243695974349976, -0.04092812538146973, 0.2305346091819782, 0.007457428937165794, 0.9720553467339293,0.043664989690782474,0.2558441162109375,-0.97320556640625,-0.9345245361328125
20230118-1502,2023-01-18 15:03:00Z,u01, 201,100,movements,wr-su, rt, d,125780.575369375, -0.03158350563952134, 0.4572491039049819, 0.11081601111148369, -0.9213871359825134, -1.7761937379837036, 1.8702856302261353, -0.028334232047200203, -0.44148147106170654, -0.8968228697776794, 0.25292834639549255, -0.5350353717803955, -0.014935493469238281, 0.22711379287724828, -0.0028070211012877627, 0.9725613585306635,0.05035852727279009,0.2245941162109375,-0.9765167236328125,-0.9117584228515625
20230118-1502,2023-01-18 15:03:00Z,u01, 202,100,movements,wr-su, rt, d,125780.58539237501, -0.058917417713961986, 0.44641596975209125, 0.13216910082028, -1.1676033735275269, -1.880323886871338, 2.095885753631592, -0.05311278626322746, -0.4317355155944824, -0.900435209274292, 0.24161985516548157, -0.5743681192398071, 0.012221097946166992, 0.2226769346331926, -0.014049623480616906, 0.9730721954697592,0.05786452511922596,0.188507080078125,-1.006103515625,-0.888214111328125
20230118-1502,2023-01-18 15:03:00Z,u01, 203,100,movements,wr-su, rt, d,125780.595415375, -0.08769015146165762, 0.4321689847096548, 0.15534073616286012, -1.4443649053573608, -1.9492007493972778, 2.3159780502319336, -0.07952585816383362, -0.4188413619995117, -0.9045704007148743, 0.21229258179664612, -0.5842562913894653, 0.04821664094924927, 0.21687683282889408, -0.026062314937544857, 0.9735931472048055,0.0663456671925029,0.1327667236328125,-1.0030975341796875,-0.856353759765625
20230118-1502,2023-01-18 15:03:00Z,u01, 204,100,movements,wr-su, rt, d,125780.605438375, -0.11739279408289371, 0.4146361073861775, 0.18003734182527845, -1.6080458164215088, -1.9887275695800781, 2.5306828022003174, -0.10719866305589676, -0.40285688638687134, -0.9089635610580444, 0.16972917318344116, -0.5320644378662109, 0.06556457281112671, 0.20981032300167965, -0.03870187413010807, 0.9740314033114978,0.07579461187092999,0.062530517578125,-0.9349212646484375,-0.8433990478515625
20230118-1502,2023-01-18 15:03:00Z,u01, 205,100,movements,wr-su, rt, d,125780.615460375, -0.14698894289482442, 0.395002967215694, 0.20603842823571675, -1.6630892753601074, -1.859153389930725, 2.723358631134033, -0.13518211245536804, -0.3848109245300293, -0.9130423665046692, 0.13553304970264435, -0.49437007308006287, 0.07127606868743896, 0.20205712989655783, -0.05149491692456108, 0.974209996386775,0.08623398741922392,0.0003509521484375,-0.879180908203125,-0.841766357421875
20230118-1502,2023-01-18 15:03:00Z,u01, 206,100,movements,wr-su, rt, d,125780.62548337501, -0.17462492870137353, 0.3735889716739848, 0.23307632005712467, -1.8050392866134644, -1.6309188604354858, 2.9064090251922607, -0.16175489127635956, -0.364959180355072, -0.916864275932312, 0.10366466641426086, -0.45762693881988525, 0.09209626913070679, 0.19371076048312186, -0.06359236813028263, 0.974105026802094,0.09773231556524589,-0.0580902099609375,-0.8225860595703125,-0.82476806640625
20230118-1502,2023-01-18 15:03:00Z,u01, 207,100,movements,wr-su, rt, d,125780.63550637501, -0.20025008439058883, 0.3493772433907362, 0.260780557577166, -2.0066492557525635, -1.5508298873901367, 3.08367919921875, -0.18689721822738647, -0.342312753200531, -0.9208102226257324, 0.048942506313323975, -0.41711726784706116, 0.04976224899291992, 0.18426188837687887, -0.07511624839543629, 0.9737898255698938,0.11017565574357394,-0.1379547119140625,-0.759429931640625,-0.8710479736328125
20230118-1502,2023-01-18 15:03:00Z,u01, 208,100,movements,wr-su, rt, d,125780.64552837501, -0.2244969050056301, 0.32211378525142853, 0.2889949052740725, -2.2088587284088135, -1.4246150255203247, 3.27176833152771, -0.21116642653942108, -0.3165723383426666, -0.9247652292251587, 0.046783462166786194, -0.44557374715805054, -0.02643716335296631, 0.1736121678819054, -0.08646504544923585, 0.973211140148783,0.12346177227837374,-0.1643829345703125,-0.76214599609375,-0.951202392578125
20230118-1502,2023-01-18 15:03:00Z,u01, 209,100,movements,wr-su, rt, d,125780.655551375, -0.2457803206878893, 0.29239489991966866, 0.31807835663312556, -2.269191265106201, -1.0780428647994995, 3.504300832748413, -0.23298615217208862, -0.2882463037967682, -0.9287796020507812, 0.07109037041664124, -0.4642104506492615, -0.04965972900390625, 0.1619599890769856, -0.0968460689468725, 0.9723079754702717,0.13786660324829872,-0.161895751953125,-0.7524566650390625,-0.9784393310546875
20230118-1502,2023-01-18 15:03:00Z,u01, 210,100,movements,wr-su, rt, d,125780.665574375, -0.2633805673459201, 0.26176337922406184, 0.34862467085273025, -2.1606879234313965, -0.7846440076828003, 3.7088284492492676, -0.2514773905277252, -0.2587842643260956, -0.9326252341270447, 0.056180089712142944, -0.3659411668777466, -0.06655073165893555, 0.14999614107754855, -0.10577585516035276, 0.97094056305662,0.15358141977187215,-0.1952972412109375,-0.624725341796875,-0.999176025390625
20230118-1502,2023-01-18 15:03:00Z,u01, 211,100,movements,wr-su, rt, d,125780.675596375, -0.27819749027447205, 0.23212646381354615, 0.3806409925100007, -1.8914618492126465, -0.6321468949317932, 3.8325350284576416, -0.26725733280181885, -0.23004747927188873, -0.9357626438140869, 0.06661948561668396, -0.22204001247882843, -0.07423186302185059, 0.13866612712487913, -0.11353587912258879, 0.9689543378442644,0.17031980633685317,-0.2006378173828125,-0.45208740234375,-1.0099945068359375
20230118-1502,2023-01-18 15:03:00Z,u01, 212,100,movements,wr-su, rt, d,125780.68561937501, -0.2911856288065577, 0.20440256957373965, 0.413413052404906, -1.6462422609329224, -0.5474056005477905, 3.842935085296631, -0.2811116576194763, -0.20298220217227936, -0.9379629492759705, 0.09286394715309143, -0.1366479992866516, -0.10021454095840454, 0.1284154822284883, -0.12053214957949887, 0.9663423928427014,0.18752028449593294,-0.1882476806640625,-0.339630126953125,-1.038177490234375
20230118-1502,2023-01-18 15:03:00Z,u01, 213,100,movements,wr-su, rt, d,125780.69564237501, -0.30232688075595376, 0.17890041878025525, 0.4464298144912375, -1.3391740322113037, -0.4357856512069702, 3.834686279296875, -0.29299038648605347, -0.17794765532016754, -0.9394100904464722, 0.09377160668373108, -0.07447856664657593, -0.07893097400665283, 0.11932318570218085, -0.12671598025715144, 0.9631938649453778,0.2048481626277851,-0.19921875,-0.2524261474609375,-1.018341064453125
20230118-1502,2023-01-18 15:03:00Z,u01, 214,100,movements,wr-su, rt, d,125780.70566437501, -0.3118911475760514, 0.15570820602338933, 0.47962707428052875, -1.1381721496582031, -0.3744271993637085, 3.784489870071411, -0.30314669013023376, -0.15507978200912476, -0.9402405619621277, 0.06245452165603638, -0.03795923292636871, -0.03053879737854004, 0.1114116567280059, -0.13216334784158168, 0.959557199271504,0.2221945014128841,-0.240692138671875,-0.1930389404296875,-0.9707794189453125
20230118-1502,2023-01-18 15:03:01Z,u01, 215,100,movements,wr-su, rt, d,125780.715687375, -0.3199664530294045, 0.13341111278789378, 0.5119435253052939, -1.1548279523849487, -0.31270846724510193, 3.666858673095703, -0.3117397427558899, -0.1330157071352005, -0.9408109188079834, 0.028139859437942505, -0.03812691569328308, 0.06661969423294067, 0.10390399214385689, -0.13710763081934021, 0.955628253656477,0.2391240713718537,-0.283599853515625,-0.171142578125,-0.8741912841796875
20230118-1502,2023-01-18 15:03:01Z,u01, 216,100,movements,wr-su, rt, d,125780.725710375, -0.3264199908436536, 0.11015751823141834, 0.5425412511261324, -1.3452820777893066, -0.2325180172920227, 3.5719993114471436, -0.3187105655670166, -0.10993486642837524, -0.9414551854133606, -0.007980167865753174, -0.07701587677001953, 0.15498673915863037, 0.09580606781671348, -0.14175186368222026, 0.9515833526912385,0.2553760172191304,-0.326690673828125,-0.18695068359375,-0.786468505859375
20230118-1502,2023-01-18 15:03:01Z,u01, 217,100,movements,wr-su, rt, d,125780.735732375, -0.3308745013021101, 0.08542101308055214, 0.5717707249879601, -1.452157974243164, -0.0833493024110794, 3.518320322036743, -0.3236857056617737, -0.08531716465950012, -0.9423102140426636, -0.028532981872558594, -0.11629727482795715, 0.20361703634262085, 0.08680478950562268, -0.1459788144977363, 0.9474329904510589,0.2711567241239235,-0.3522186279296875,-0.2016143798828125,-0.7386932373046875
20230118-1502,2023-01-18 15:03:01Z,u01, 218,100,movements,wr-su, rt, d,125780.74575537501, -0.33305561494054386, 0.060324407517006545, 0.5996975432546962, -1.4821754693984985, 0.04800686240196228, 3.36653995513916, -0.3263375759124756, -0.060287825763225555, -0.9433287978172302, -0.02910071611404419, -0.06080597639083862, 0.22430413961410522, 0.07735242117538173, -0.14950657625586056, 0.9432127377064815,0.28638121799565297,-0.355438232421875,-0.12109375,-0.719024658203125
20230118-1502,2023-01-18 15:03:01Z,u01, 219,100,movements,wr-su, rt, d,125780.75577837501, -0.33343917641061405, 0.035989548871092014, 0.6259952836368778, -1.4006595611572266, 0.12620286643505096, 3.1894772052764893, -0.3270827829837799, -0.03598178178071976, -0.9443104267120361, -0.016789346933364868, 0.06573636084794998, 0.22891736030578613, 0.06797140493721918, -0.15239644390682747, 0.938990511475441,0.300752517843708,-0.3438720703125,0.029754638671875,-0.71539306640625
20230118-1502,2023-01-18 15:03:01Z,u01, 220,100,movements,wr-su, rt, d,125780.76580037501, -0.33237543141932285, 0.013224930779238817, 0.6512082682490387, -1.2845127582550049, 0.2138994187116623, 3.062981367111206, -0.32626083493232727, -0.013224544934928417, -0.9451872706413269, 0.016003847122192383, 0.1265820413827896, 0.1864745020866394, 0.059093472782328904, -0.15464256401605786, 0.9347336708585037,0.31443080634181936,-0.3102569580078125,0.1133575439453125,-0.7587127685546875
20230118-1502,2023-01-18 15:03:01Z,u01, 221,100,movements,wr-su, rt, d,125780.775823375, -0.3297068469963818, -0.008114902108412389, 0.6757861116804533, -1.1912680864334106, 0.33625704050064087, 2.9742095470428467, -0.32375502586364746, 0.008114812895655632, -0.9461061358451843, 0.05384227633476257, 0.12146276980638504, 0.1543581485748291, 0.0506251637086749, -0.1561538413696054, 0.9304358071461535,0.3276312073477196,-0.2699127197265625,0.12957763671875,-0.791748046875
20230118-1502,2023-01-18 15:03:01Z,u01, 222,100,movements,wr-su, rt, d,125780.785846375, -0.32520894032955955, -0.028508487702306337, 0.6998371630108904, -1.1878619194030762, 0.4762492775917053, 2.894900321960449, -0.31937694549560547, 0.02850462682545185, -0.9471989274024963, 0.0852002501487732, 0.07145565748214722, 0.12398731708526611, 0.042279952215138986, -0.15688508886746286, 0.926123753268476,0.3404324880768789,-0.2341766357421875,0.0999603271484375,-0.823211669921875
20230118-1502,2023-01-18 15:03:01Z,u01, 223,100,movements,wr-su, rt, d,125780.795868375, -0.3187317164740862, -0.04941909172175286, 0.7226036438627301, -1.4339667558670044, 0.6494961977005005, 2.7333426475524902, -0.3129798471927643, 0.04939897730946541, -0.9484742283821106, 0.111640065908432, 0.04117714241147041, 0.11859452724456787, 0.033260305359020324, -0.15702431125078672, 0.9219158260253643,0.3525740105851854,-0.2013397216796875,0.090576171875,-0.8298797607421875
20230118-1502,2023-01-18 15:03:01Z,u01, 224,100,movements,wr-su, rt, d,125780.80589137501, -0.3101671127800411, -0.07246891363240728, 0.7425756769471166, -1.803732991218567, 0.8321826457977295, 2.5149052143096924, -0.3044166564941406, 0.07240550220012665, -0.9497830867767334, 0.11780163645744324, 0.06815842539072037, 0.15383893251419067, 0.022651764470380188, -0.15682903597262443, 0.9180427741678606,0.3634405950753107,-0.186614990234375,0.14056396484375,-0.7959442138671875
20230118-1502,2023-01-18 15:03:01Z,u01, 225,100,movements,wr-su, rt, d,125780.81591437501, -0.29949165274796585, -0.09819916183657457, 0.7600921579422654, -2.229856014251709, 1.0194590091705322, 2.413036584854126, -0.29361316561698914, 0.09804141521453857, -0.9508833885192871, 0.10164228081703186, 0.07792289555072784, 0.12350606918334961, 0.01020829046687939, -0.15637805649961667, 0.9144323557024477,0.3731693533993761,-0.1919708251953125,0.17596435546875,-0.8273773193359375
20230118-1502,2023-01-18 15:03:01Z,u01, 226,100,movements,wr-su, rt, d,125780.825937375, -0.28680726643278787, -0.12731852440230834, 0.7757831678087108, -2.5388591289520264, 1.1845529079437256, 2.2938590049743652, -0.2806016206741333, 0.12697483599185944, -0.9513885378837585, 0.11130529642105103, 0.054482653737068176, 0.15892332792282104, -0.004340229234924916, -0.1558425372314859, 0.9109119668486292,0.38201282957487986,-0.1692962646484375,0.18145751953125,-0.7924652099609375
20230118-1502,2023-01-18 15:03:01Z,u01, 227,100,movements,wr-su, rt, d,125780.835959375, -0.27154693697575466, -0.15597952483250305, 0.7910162646522095, -2.1681723594665527, 1.459347128868103, 2.223337411880493, -0.2649657428264618, 0.1553478091955185, -0.9516618251800537, 0.1153685450553894, 0.09607122838497162, 0.1748826503753662, -0.019243102365760878, -0.15426857651448167, 0.9074661459352207,0.3903026842716683,-0.14959716796875,0.2514190673828125,-0.7767791748046875
20230118-1502,2023-01-18 15:03:01Z,u01, 228,100,movements,wr-su, rt, d,125780.845982375, -0.2527387474550124, -0.1791399543944199, 0.8078544910733613, -1.4334059953689575, 1.7549899816513062, 2.1927599906921387, -0.24605505168437958, 0.17818336188793182, -0.9527369141578674, 0.1084207147359848, 0.288949191570282, 0.09415537118911743, -0.032259221744113255, -0.15030265361563497, 0.9041047501552055,0.3987019615421815,-0.13763427734375,0.467132568359375,-0.85858154296875
20230118-1502,2023-01-18 15:03:01Z,u01, 229,100,movements,wr-su, rt, d,125780.85600537501, -0.23056979063320868, -0.19634213618634805, 0.8260167253492025, -0.9446382522583008, 1.8806209564208984, 2.138749122619629, -0.2241414189338684, 0.19508306682109833, -0.9548315405845642, 0.14134718477725983, 0.531097948551178, 0.1453985571861267, -0.04322957011102711, -0.14392860118072653, 0.9009318366772707,0.4071090341569627,-0.082794189453125,0.7261810302734375,-0.8094329833984375
20230118-1502,2023-01-18 15:03:01Z,u01, 230,100,movements,wr-su, rt, d,125780.86602737501, -0.2084722519125409, -0.20068527396645125, 0.8458929751497428, 0.5737465023994446, 1.7413045167922974, 1.6838481426239014, -0.20281171798706055, 0.19934089481830597, -0.9587129950523376, 0.21335548162460327, 0.5208739042282104, 0.45274680852890015, -0.04836015359058092, -0.13529520909377482, 0.8980941662331423,0.41567234835508443,0.0105438232421875,0.72021484375,-0.5059661865234375
20230118-1502,2023-01-18 15:03:01Z,u01, 231,100,movements,wr-su, rt, d,125780.87605037501, -0.19204048122223646, -0.19515620936042868, 0.8606448248167612, 1.3082703351974487, 0.9470115303993225, 1.0257974863052368, -0.18723919987678528, 0.19391977787017822, -0.9629831910133362, 0.302885502576828, 0.5185741186141968, 0.3134012818336487, -0.04832912251838784, -0.12717194789312466, 0.8964451654792579,0.42175561016785185,0.1156463623046875,0.712493896484375,-0.6495819091796875
20230118-1502,2023-01-18 15:03:01Z,u01, 232,100,movements,wr-su, rt, d,125780.886073375, -0.1832201596122704, -0.1781135288351222, 0.8749356513035025, 2.312203884124756, 0.31264570355415344, 1.129691481590271, -0.17931436002254486, 0.17717325687408447, -0.967706561088562, 0.4399191737174988, 0.9693720936775208, -0.1478481888771057, -0.04162313916513008, -0.12005928414023813, 0.8950073420556733,0.4275689033028341,0.2606048583984375,1.14654541015625,-1.1155548095703125
20230118-1502,2023-01-18 15:03:01Z,u01, 233,100,movements,wr-su, rt, d,125780.896095375, -0.17917690725277552, -0.15900904641755978, 0.8880656004347476, 1.7920849323272705, 0.06570090353488922, 0.6317550539970398, -0.17597141861915588, 0.15833982825279236, -0.9715773463249207, 0.6303476095199585, 0.8644567728042603, -0.20067906379699707, -0.03311851212768474, -0.11451849084330547, 0.8935116501942151,0.4329269385245524,0.454376220703125,1.022796630859375,-1.1722564697265625
20230118-1502,2023-01-18 15:03:01Z,u01, 234,100,movements,wr-su, rt, d,125780.906118375, -0.17734676289420334, -0.14446293065090254, 0.8948685933837928, 1.304082989692688, 0.14436881244182587, 0.2691481113433838, -0.1745808869600296, 0.14396098256111145, -0.9740619659423828, 0.4498646557331085, 0.9133815169334412, -0.1448344588279724, -0.02659405347920187, -0.1107328459416571, 0.8929112591457248,0.4355921462514908,0.2752838134765625,1.057342529296875,-1.118896484375
20230118-1502,2023-01-18 15:03:01Z,u01, 235,100,movements,wr-su, rt, d,125780.91614137501, -0.17441097109853107, -0.13538162792302855, 0.8997996782557298, 0.5989661812782288, 0.279091477394104, 0.38653337955474854, -0.17194028198719025, 0.13496845960617065, -0.9758176207542419, 0.18323174118995667, 0.6582901477813721, -0.17805194854736328, -0.0228882335880026, -0.10755142676839712, 0.8924526139175704,0.43753547421456623,0.01129150390625,0.7932586669921875,-1.15386962890625
20230118-1502,2023-01-18 15:03:01Z,u01, 236,100,movements,wr-su, rt, d,125780.92616337501, -0.17152015266337703, -0.13278162869930676, 0.9044201193079919, 0.10327309370040894, 0.13581714034080505, 0.39824649691581726, -0.16917797923088074, 0.1323917955160141, -0.9766530990600586, 0.11528386175632477, 0.5639430284500122, -0.1683359146118164, -0.022109398228745258, -0.10575745036358221, 0.8917204963309449,0.43950089152423943,-0.05389404296875,0.6963348388671875,-1.144989013671875
20230118-1502,2023-01-18 15:03:01Z,u01, 237,100,movements,wr-su, rt, d,125780.93618637501, -0.17133169614522553, -0.13387170075537025, 0.907707175752689, -0.2588704824447632, -0.21317361295223236, 0.2792731523513794, -0.16896921396255493, 0.13347218930721283, -0.9765421748161316, 0.18586061894893646, 0.4743006229400635, -0.3057454228401184, -0.02246545053569066, -0.10594444040719242, 0.8909541289709965,0.44098973085936044,0.0168914794921875,0.6077728271484375,-1.28228759765625
20230118-1502,2023-01-18 15:03:01Z,u01, 238,100,movements,wr-su, rt, d,125780.946209375, -0.17512749449951334, -0.13934573907454045, 0.909338636494634, -0.8122071623802185, -0.5987519025802612, 0.250348299741745, -0.17254485189914703, 0.13889522850513458, -0.9751597046852112, 0.26002341508865356, 0.4417932331562042, -0.3596944212913513, -0.0239916458075027, -0.10883272238706812, 0.8901193707284799,0.44189084745224333,0.0874786376953125,0.5806884765625,-1.3348541259765625
20230118-1502,2023-01-18 15:03:01Z,u01, 239,100,movements,wr-su, rt, d,125780.956231375, -0.1824906053460813, -0.15120578735943066, 0.9099740328309175, -1.5074243545532227, -0.8785347938537598, 0.2902793884277344, -0.1794087290763855, 0.15063026547431946, -0.9721744060516357, 0.2907520532608032, 0.32840412855148315, -0.29039883613586426, -0.02763684215884807, -0.11466914518952392, 0.8889503575732594,0.4425545756433207,0.1113433837890625,0.479034423828125,-1.2625732421875
20230118-1502,2023-01-18 15:03:01Z,u01, 240,100,movements,wr-su, rt, d,125780.966254375, -0.1922161134333607, -0.16952176155689816, 0.9092734631321998, -2.080540657043457, -1.029424786567688, 0.24358271062374115, -0.18829628825187683, 0.16871099174022675, -0.967512845993042, 0.26291170716285706, 0.08362358808517456, -0.176743745803833, -0.033720488140384225, -0.12290852411523075, 0.8874965246953281,0.44283890773993395,0.074615478515625,0.2523345947265625,-1.144256591796875
20230118-1502,2023-01-18 15:03:01Z,u01, 241,100,movements,wr-su, rt, d,125780.97627737501, -0.20307683171597338, -0.19218427728796306, 0.9066654196537468, -2.424687147140503, -1.0371538400650024, 0.14428026974201202, -0.19797076284885406, 0.19100341200828552, -0.9614183902740479, 0.1636079102754593, -0.03656923770904541, -0.04325079917907715, -0.04161997419493629, -0.1325088494618287, 0.8859768289204267,0.4424411926128355,-0.03436279296875,0.1544342041015625,-1.004669189453125
20230118-1502,2023-01-18 15:03:01Z,u01, 242,100,movements,wr-su, rt, d,125780.98629937501, -0.21385225750294504, -0.21581534248724712, 0.9026634363886704, -2.2796647548675537, -0.9510833024978638, 0.06442539393901825, -0.2073027789592743, 0.21414393186569214, -0.9545511603355408, 0.05697314441204071, 0.024289876222610474, 0.09520667791366577, -0.050082939370522786, -0.1421833694938109, 0.8845105894902612,0.44149378248580645,-0.15032958984375,0.238433837890625,-0.859344482421875
20230118-1502,2023-01-18 15:03:01Z,u01, 243,100,movements,wr-su, rt, d,125780.99632237501, -0.22361307678900214, -0.2355580557383785, 0.8983732829889307, -1.723037838935852, -0.8074989914894104, -0.03269178047776222, -0.21563027799129486, 0.23338566720485687, -0.9481744170188904, 0.010079070925712585, 0.11343133449554443, 0.16883176565170288, -0.05707603596793851, -0.1505161772226737, 0.8832813319069662,0.44034227663387265,-0.2055511474609375,0.3468170166015625,-0.7793426513671875
20230118-1502,2023-01-18 15:03:01Z,u01, 244,100,movements,wr-su, rt, d,125781.006345375, -0.2318174280327423, -0.24907521028216664, 0.8940728708018583, -1.0916422605514526, -0.6345242857933044, -0.1762249767780304, -0.22265692055225372, 0.24650780856609344, -0.9432167410850525, 0.006363511085510254, 0.30050450563430786, 0.2360634207725525, -0.06165048226063787, -0.1568147166566917, 0.8825346362320106,0.4390227027396401,-0.2162933349609375,0.5470123291015625,-0.7071533203125
20230118-1502,2023-01-18 15:03:01Z,u01, 245,100,movements,wr-su, rt, d,125781.01636837501, -0.23830331235627975, -0.25598515734450106, 0.8898102864263905, -0.44017165899276733, -0.4518596827983856, -0.2988757789134979, -0.22836224734783173, 0.2531985938549042, -0.9400750994682312, 0.024748921394348145, 0.47009849548339844, 0.3030053973197937, -0.06366074806430828, -0.16096510892548516, 0.8823903255118534,0.4375213088199668,-0.20361328125,0.723297119140625,-0.6370697021484375
20230118-1502,2023-01-18 15:03:01Z,u01, 246,100,movements,wr-su, rt, d,125781.026390375, -0.2424047542982977, -0.2565770055650693, 0.8862811799451412, 0.14896032214164734, -0.1961866319179535, -0.32971543073654175, -0.23217996954917908, 0.2537710964679718, -0.9389849305152893, 0.0376456081867218, 0.4953133463859558, 0.2529192566871643, -0.06331567464859973, -0.16278408272137168, 0.882780205756644,0.4361097651025156,-0.1945343017578125,0.74908447265625,-0.686065673828125
20230118-1502,2023-01-18 15:03:01Z,u01, 247,100,movements,wr-su, rt, d,125781.03641337501, -0.24372725748876656, -0.2522359730063343, 0.883869963705699, 0.5690016746520996, 0.008573169820010662, -0.34112390875816345, -0.2336852252483368, 0.24956980347633362, -0.9397372603416443, 0.03924241662025452, 0.447604238986969, 0.20122718811035156, -0.06127818116243349, -0.16240795114063178, 0.8835566085428364,0.4349673651112973,-0.1944427490234375,0.697174072265625,-0.7385101318359375
20230118-1502,2023-01-18 15:03:01Z,u01, 248,100,movements,wr-su, rt, d,125781.046436375, -0.2437020395550631, -0.2446569957392832, 0.8821058776525111, 0.8241865634918213, 0.026212351396679878, -0.37429383397102356, -0.23411120474338531, 0.24222354590892792, -0.9415517449378967, 0.04917465150356293, 0.3717290759086609, 0.1941457986831665, -0.058027289904975805, -0.16080098958719602, 0.8845584139651858,0.4339727466813067,-0.1849365234375,0.61395263671875,-0.747406005859375
