SessionID,LoggingTime,UID,RecNo,Hertz,Activity,MoveType,Wrist,Side,TimeStamp,DMRoll,DMPitch,DMYaw,DMRotX,DMRotY,DMRotZ,DMGrvX,DMGrvY,DMGrvZ,DMUAccelX,DMUAccelY,DMUAccelZ,DMQuatX,DMQuatY,DMQuatW,DMQuatZ,AccelroX,AceelroY,AceelroZ
20230215-1526,2023-02-15 15:27:01Z,u01, 1,100,movements,el-ex, lt, nd,280943.3358651667, 0.07052877723714579, 0.47936763712998787, -0.017242660797659893, -0.28147441148757935, 0.5254332423210144, 1.1273345947265625, 0.0625273808836937, -0.4612181782722473, -0.8850808143615723, -0.02726433426141739, -0.016854822635650635, -0.022908687591552734, 0.23753437755606427, 0.03220255163131672, 0.9708451158531347,-1.5178830414797062e-18,0.0312347412109375,-0.4758453369140625,-0.908172607421875
20230215-1526,2023-02-15 15:27:01Z,u01, 2,100,movements,el-ex, lt, nd,280943.3458871667, 0.06982160848917036, 0.4772829248440889, -0.004430298470867938, -0.2918016314506531, 0.5065596699714661, 1.1067650318145752, 0.06196840852499008, -0.45936745405197144, -0.8860820531845093, -0.022005658596754074, -0.0186445415019989, -0.024379372596740723, 0.23631334553457659, 0.033391158670222965, 0.9710837494839798,0.006099561149868916,0.03753662109375,-0.477783203125,-0.9088592529296875
20230215-1526,2023-02-15 15:27:01Z,u01, 3,100,movements,el-ex, lt, nd,280943.3559101667, 0.0690671027115783, 0.47512994491160737, 0.008073357511414789, -0.2904455363750458, 0.4870624244213104, 1.0754870176315308, 0.0613679476082325, -0.45745399594306946, -0.8871131539344788, -0.02505205199122429, -0.0058179497718811035, -0.02301257848739624, 0.23505902247587993, 0.034506107575496624, 0.9712936278960144,0.012046287155165186,0.0394287109375,-0.47210693359375,-0.91058349609375
20230215-1526,2023-02-15 15:27:01Z,u01, 4,100,movements,el-ex, lt, nd,280943.3659321667, 0.06825820518681595, 0.47302577258701917, 0.020270669706728302, -0.2754193842411041, 0.4630178213119507, 1.0545217990875244, 0.06071586161851883, -0.4555819034576416, -0.8881208896636963, -0.028321467339992523, 0.006561607122421265, -0.017625629901885986, 0.23382933360882993, 0.03554426402058613, 0.97146390017438,0.017842234530125702,0.034149169921875,-0.454559326171875,-0.9073486328125
20230215-1526,2023-02-15 15:27:01Z,u01, 5,100,movements,el-ex, lt, nd,280943.3759551667, 0.0673238041148554, 0.4710617510715269, 0.032143068888547954, -0.25916239619255066, 0.42396336793899536, 1.024662971496582, 0.059946052730083466, -0.4538326561450958, -0.8890682458877563, -0.02344704419374466, 0.004217267036437988, -0.014755606651306152, 0.2326709837189057, 0.036470265450214645, 0.9715879728811381,0.023471102460869378,0.033782958984375,-0.448699951171875,-0.9059600830078125
20230215-1526,2023-02-15 15:27:01Z,u01, 6,100,movements,el-ex, lt, nd,280943.3859771667, 0.06615534541348697, 0.46926863863238627, 0.04364806415536155, -0.23330247402191162, 0.3836500346660614, 0.9930021166801453, 0.05896087363362312, -0.4522341191768646, -0.8899482488632202, -0.020920731127262115, -0.0006008744239807129, -0.007634758949279785, 0.231602915168531, 0.03722843390371981, 0.9716680976387602,0.028899654217922923,0.039031982421875,-0.4519500732421875,-0.9010467529296875
20230215-1526,2023-02-15 15:27:01Z,u01, 7,100,movements,el-ex, lt, nd,280943.3959991667, 0.0648888521804037, 0.4677174328035677, 0.054777661973589825, -0.2057400941848755, 0.3676875829696655, 0.9641252160072327, 0.05787913128733635, -0.4508500397205353, -0.8907212018966675, -0.028689082711935043, 0.001616150140762329, -0.0009109377861022949, 0.2306599469384031, 0.037886662881170964, 0.9716969258753394,0.034140247548843886,0.0338287353515625,-0.4514923095703125,-0.8948822021484375
20230215-1526,2023-02-15 15:27:01Z,u01, 8,100,movements,el-ex, lt, nd,280943.40602216666, 0.06365146999380666, 0.4664330659910837, 0.06554191322887944, -0.16920192539691925, 0.3504049777984619, 0.9363604187965393, 0.056813713163137436, -0.44970324635505676, -0.8913692831993103, -0.03947973996400833, -0.0011480748653411865, 0.004864096641540527, 0.229852731226907, 0.03851074471722698, 0.9716723449245985,0.039211928801092984,0.0235595703125,-0.4485931396484375,-0.8879241943359375
20230215-1526,2023-02-15 15:27:01Z,u01, 9,100,movements,el-ex, lt, nd,280943.41604416666, 0.0623242689296034, 0.46545268701607556, 0.07595867042190985, -0.1443815380334854, 0.31903374195098877, 0.9033347964286804, 0.055658068507909775, -0.4488273859024048, -0.8918834924697876, -0.04256603866815567, -0.012827187776565552, 0.006171762943267822, 0.22920187496525993, 0.03904813674051824, 0.9715946007786146,0.0441092556648839,0.01361083984375,-0.454742431640625,-0.8856353759765625
20230215-1526,2023-02-15 15:27:01Z,u01, 10,100,movements,el-ex, lt, nd,280943.42606716667, 0.060855624790861707, 0.4645832719849313, 0.08596781820215375, -0.13916504383087158, 0.28318920731544495, 0.8717435002326965, 0.05437185987830162, -0.44805029034614563, -0.8923534154891968, -0.041111987084150314, -0.01798352599143982, 0.007923483848571777, 0.22861694352759326, 0.039466276978863166, 0.9714914622938198,0.04879437309267516,0.0140228271484375,-0.4656982421875,-0.8854827880859375
20230215-1526,2023-02-15 15:27:01Z,u01, 11,100,movements,el-ex, lt, nd,280943.4360891667, 0.05919989622564904, 0.4637468253019125, 0.09570921723612348, -0.13211219012737274, 0.257558137178421, 0.8561927676200867, 0.052916448563337326, -0.44730234146118164, -0.8928160071372986, -0.04246418550610542, -0.01766335964202881, 0.0025571584701538086, 0.2280597244825569, 0.03975863770212243, 0.9713722014382237,0.053329063081764334,0.0120391845703125,-0.465301513671875,-0.88677978515625
20230215-1526,2023-02-15 15:27:01Z,u01, 12,100,movements,el-ex, lt, nd,280943.4461122917, 0.05739826901435848, 0.46295431004564924, 0.1053275441085656, -0.12207216024398804, 0.2400481104850769, 0.8490126132965088, 0.051328159868717194, -0.44659337401390076, -0.8932635188102722, -0.04809330776333809, -0.016190320253372192, -0.005509734153747559, 0.22753293761674376, 0.039962468184470946, 0.9712322434382881,0.05778836903283213,0.007537841796875,-0.464752197265625,-0.894805908203125
20230215-1526,2023-02-15 15:27:01Z,u01, 13,100,movements,el-ex, lt, nd,280943.45613429166, 0.055524655531837164, 0.4623092604281273, 0.11485789677962296, -0.10510515421628952, 0.23740732669830322, 0.8420412540435791, 0.04967041686177254, -0.4460161328315735, -0.8936455845832825, -0.057086195796728134, -0.01304444670677185, -0.009766340255737305, 0.2270848626467405, 0.04012066903467853, 0.9710582602243979,0.06219832337801549,-0.001922607421875,-0.461883544921875,-0.8996429443359375
20230215-1526,2023-02-15 15:27:01Z,u01, 14,100,movements,el-ex, lt, nd,280943.46615729167, 0.05372583531017183, 0.46174632028610857, 0.1242756331915972, -0.09854210168123245, 0.23557427525520325, 0.8340370655059814, 0.04807630553841591, -0.44551223516464233, -0.8939840793609619, -0.06266371160745621, -0.015181034803390503, -0.01867467164993286, 0.22667991050780834, 0.040301128913365056, 0.9708560281167667,0.06656276002887684,-0.012237548828125,-0.45947265625,-0.9083251953125
20230215-1526,2023-02-15 15:27:01Z,u01, 15,100,movements,el-ex, lt, nd,280943.47617929167, 0.05179637221533701, 0.4613363321897203, 0.13360408151025396, -0.06815649569034576, 0.20320966839790344, 0.8243010640144348, 0.04636076092720032, -0.4451451301574707, -0.8942574858665466, -0.06209258362650871, -0.01563963294029236, -0.01502901315689087, 0.2263588330214714, 0.04040954656024801, 0.970621510592242,0.07086975243245378,-0.0164337158203125,-0.4604339599609375,-0.9131927490234375
20230215-1526,2023-02-15 15:27:01Z,u01, 16,100,movements,el-ex, lt, nd,280943.4862012917, 0.049583639255968426, 0.4612691669132427, 0.14276009111522403, -0.03065865859389305, 0.16838964819908142, 0.8087990283966064, 0.04438338056206703, -0.44508498907089233, -0.8943877816200256, -0.05514083057641983, -0.015592992305755615, -0.01614999771118164, 0.2262220211204627, 0.04036972667119972, 0.9703399458683089,0.07506196268197526,-0.0128021240234375,-0.461944580078125,-0.9093475341796875
20230215-1526,2023-02-15 15:27:01Z,u01, 17,100,movements,el-ex, lt, nd,280943.4962242917, 0.04709839416006555, 0.4614736253288952, 0.15171104209189837, -0.008490504696965218, 0.13267239928245544, 0.7915416955947876, 0.04215618595480919, -0.44526806473731995, -0.8944043517112732, -0.05167767405509949, -0.009474247694015503, -0.015156805515289307, 0.22623683882708948, 0.04018339707307755, 0.9700214291698478,0.07912355742488188,-0.010589599609375,-0.4578704833984375,-0.911346435546875
20230215-1526,2023-02-15 15:27:01Z,u01, 18,100,movements,el-ex, lt, nd,280943.5062462917, 0.044308256702064175, 0.46177183659298615, 0.16052208115041106, -0.0030122296884655952, 0.09494605660438538, 0.7833511233329773, 0.03965463116765022, -0.4455350637435913, -0.894385814666748, -0.04409494623541832, -0.014410465955734253, -0.008339405059814453, 0.2263184566129701, 0.039837792355884125, 0.9696856524753478,0.08308125206645105,-0.0070037841796875,-0.4552459716796875,-0.906768798828125
20230215-1526,2023-02-15 15:27:01Z,u01, 19,100,movements,el-ex, lt, nd,280943.5162692917, 0.041214095496238695, 0.462046766766165, 0.16919510157164272, -0.007662109099328518, 0.06090712547302246, 0.7642216086387634, 0.03688202425837517, -0.4457812011241913, -0.8943818211555481, -0.042207349091768265, -0.017780691385269165, -0.005581557750701904, 0.22641168480001458, 0.03932984058804144, 0.9693467412917212,0.08693562505585177,-0.0031280517578125,-0.4635009765625,-0.901123046875
20230215-1526,2023-02-15 15:27:01Z,u01, 20,100,movements,el-ex, lt, nd,280943.5262912917, 0.03794181053326414, 0.4622585795194899, 0.17764005474533812, -0.01223713532090187, 0.03720499202609062, 0.7499813437461853, 0.03395157679915428, -0.4459707736968994, -0.894403338432312, -0.04678421840071678, -0.013318628072738647, -0.014654278755187988, 0.2264949524959489, 0.038708767586826884, 0.969011233272159,0.09065739722872806,-0.0078582763671875,-0.46063232421875,-0.9019927978515625
20230215-1526,2023-02-15 15:27:01Z,u01, 21,100,movements,el-ex, lt, nd,280943.5363142917, 0.034544585929563415, 0.46238645894399627, 0.18601666243485518, -0.018865475431084633, 0.03307922184467316, 0.7476281523704529, 0.030910925939679146, -0.44608524441719055, -0.8944565057754517, -0.055584389716386795, -0.0075431764125823975, -0.01853787899017334, 0.2265533737070705, 0.038017207255157656, 0.9686743628441288,0.09433022459908529,-0.0192718505859375,-0.45489501953125,-0.91265869140625
20230215-1526,2023-02-15 15:27:01Z,u01, 22,100,movements,el-ex, lt, nd,280943.5463362917, 0.031232061618492877, 0.46234660660476157, 0.19438016501507743, -0.038408681750297546, 0.05085182934999466, 0.7469434142112732, 0.02794840931892395, -0.4460495710372925, -0.8945717811584473, -0.06005290150642395, -0.0036573708057403564, -0.026601314544677734, 0.2265357231567516, 0.03735868128435393, 0.9683392775963561,0.09800517786919179,-0.0282440185546875,-0.4507904052734375,-0.9137115478515625
20230215-1526,2023-02-15 15:27:01Z,u01, 23,100,movements,el-ex, lt, nd,280943.5563582917, 0.028157257033253436, 0.4620698736141958, 0.20276567552507466, -0.06371244788169861, 0.07916788756847382, 0.7453263401985168, 0.02520112134516239, -0.44580188393592834, -0.8947768211364746, -0.06432465463876724, 0.006425142288208008, -0.03796243667602539, 0.22639972802162997, 0.03680685069178485, 0.9680092663677966,0.10171748799003104,-0.037200927734375,-0.4444732666015625,-0.92718505859375
20230215-1526,2023-02-15 15:27:01Z,u01, 24,100,movements,el-ex, lt, nd,280943.56638129166, 0.025287640955889628, 0.4615363351769957, 0.21112104037080573, -0.07651276141405106, 0.08932118862867355, 0.7422477602958679, 0.02263936586678028, -0.44532421231269836, -0.8950831294059753, -0.05813130736351013, 0.018459707498550415, -0.045483946800231934, 0.22613719663539628, 0.036337437514392106, 0.967690090293273,0.10543906681354072,-0.0389404296875,-0.4324951171875,-0.9352264404296875
20230215-1526,2023-02-15 15:27:01Z,u01, 25,100,movements,el-ex, lt, nd,280943.57640329166, 0.022398103593545153, 0.46096235921598133, 0.2193464676937018, -0.07502378523349762, 0.06173750013113022, 0.7220226526260376, 0.02005862072110176, -0.4448102116584778, -0.8954002261161804, -0.04015444219112396, 0.024171292781829834, -0.057999491691589355, 0.2258658978971674, 0.03583982283726918, 0.9673667134022368,0.10909544715218039,-0.0294952392578125,-0.4230499267578125,-0.9475250244140625
20230215-1526,2023-02-15 15:27:01Z,u01, 26,100,movements,el-ex, lt, nd,280943.5864262917, 0.0193080626602528, 0.46030677748271254, 0.22726159469353055, -0.08418037742376328, 0.022471586242318153, 0.6912060379981995, 0.017297333106398582, -0.44422298669815063, -0.8957492709159851, -0.022805750370025635, 0.029550224542617798, -0.07127654552459717, 0.22557935387048944, 0.03520398971818633, 0.9670576429463782,0.11257954511674746,-0.012359619140625,-0.418182373046875,-0.959564208984375
20230215-1526,2023-02-15 15:27:01Z,u01, 27,100,movements,el-ex, lt, nd,280943.5964482917, 0.01599249453858182, 0.45949767834241134, 0.23477969718778854, -0.10222276300191879, -0.015576730482280254, 0.6499331593513489, 0.014333068393170834, -0.4434979557991028, -0.8961607813835144, -0.017796814441680908, 0.029649168252944946, -0.07287919521331787, 0.22524653197180747, 0.03440380301683493, 0.9667779003964949,0.11584774351917353,-0.00177001953125,-0.412567138671875,-0.9694061279296875
20230215-1526,2023-02-15 15:27:01Z,u01, 28,100,movements,el-ex, lt, nd,280943.6064712917, 0.012613964582309315, 0.45846843099587065, 0.2417953396884793, -0.11891594529151917, -0.0370471328496933, 0.6015004515647888, 0.011311037465929985, -0.44257521629333496, -0.8966600298881531, -0.031010132282972336, 0.02417933940887451, -0.0575789213180542, 0.22482800648353954, 0.033501509684433474, 0.9665402846028146,0.11886881985291205,-0.01025390625,-0.4171295166015625,-0.9625091552734375
20230215-1526,2023-02-15 15:27:01Z,u01, 29,100,movements,el-ex, lt, nd,280943.6164932917, 0.0093891379966083, 0.4573607940949843, 0.24824445859726538, -0.11183061450719833, -0.038717735558748245, 0.5504729151725769, 0.008424008265137672, -0.44158169627189636, -0.897181510925293, -0.046860892325639725, 0.013420164585113525, -0.04028803110122681, 0.22437992776220736, 0.03260223741116078, 0.9663309179117469,0.1216354159752991,-0.0305023193359375,-0.422760009765625,-0.9452056884765625
20230215-1526,2023-02-15 15:27:01Z,u01, 30,100,movements,el-ex, lt, nd,280943.6265152917, 0.006367403460325143, 0.45638243023038605, 0.25409166314176396, -0.09143158793449402, -0.04832056164741516, 0.49462297558784485, 0.005715677980333567, -0.44070369005203247, -0.8976344466209412, -0.05959445610642433, 0.016814619302749634, -0.030115246772766113, 0.22399876536161095, 0.03173858264176631, 0.9661303885986953,0.12413358717732026,-0.0472412109375,-0.429046630859375,-0.9329681396484375
20230215-1526,2023-02-15 15:27:02Z,u01, 31,100,movements,el-ex, lt, nd,280943.6365382917, 0.0035349302711229044, 0.4556510264167758, 0.2592715498006379, -0.05487571284174919, -0.06222812086343765, 0.43386828899383545, 0.003174271434545517, -0.440047025680542, -0.897969126701355, -0.06706281006336212, 0.036742061376571655, -0.026927173137664795, 0.2237416582877863, 0.030904867441299808, 0.9659325466605115,0.12632820283255017,-0.0598907470703125,-0.4147186279296875,-0.9253692626953125
20230215-1526,2023-02-15 15:27:02Z,u01, 32,100,movements,el-ex, lt, nd,280943.6465602917, 0.000822509360073367, 0.4552554036410661, 0.2637967530136047, -0.027108414098620415, -0.07965691387653351, 0.381263792514801, 0.0007387356599792838, -0.4396917223930359, -0.8981484174728394, -0.07077656686306, 0.05210331082344055, -0.020705342292785645, 0.22365422406674282, 0.03007605984425691, 0.9657301848373683,0.12821573623616578,-0.0657806396484375,-0.395050048828125,-0.922271728515625
20230215-1526,2023-02-15 15:27:02Z,u01, 33,100,movements,el-ex, lt, nd,280943.6565832917, -0.0017211038473737108, 0.455086768669558, 0.2678375149838468, -0.0034382399171590805, -0.06785111874341965, 0.3447238802909851, -0.0015459341229870915, -0.4395402669906616, -0.8982215523719788, -0.07604500651359558, 0.054561108350753784, -0.026934146881103516, 0.2236769409053638, 0.02928895743855914, 0.9655261601408935,0.1298847415941558,-0.0739288330078125,-0.385162353515625,-0.9212799072265625
20230215-1526,2023-02-15 15:27:02Z,u01, 34,100,movements,el-ex, lt, nd,280943.66660529166, -0.003901039331942532, 0.4551707162699338, 0.27156801058144214, 0.0179966501891613, -0.03970496729016304, 0.3240557312965393, -0.0035038499627262354, -0.4396156668663025, -0.8981791734695435, -0.07886308431625366, 0.04790738224983215, -0.02915853261947632, 0.22380583273495297, 0.028659528677733324, 0.9653046503452648,0.13144027997179716,-0.079193115234375,-0.387939453125,-0.9259033203125
20230215-1526,2023-02-15 15:27:02Z,u01, 35,100,movements,el-ex, lt, nd,280943.67662829167, -0.00571441457752141, 0.45528231710958883, 0.27509516425850794, 0.006538931280374527, -0.01115934457629919, 0.30514782667160034, -0.005132298916578293, -0.4397158920764923, -0.898122251033783, -0.08085096627473831, 0.04939618706703186, -0.03959137201309204, 0.22392942543065372, 0.02818664801065562, 0.9650847711970153,0.13293766132671544,-0.085693359375,-0.3942413330078125,-0.933380126953125
20230215-1526,2023-02-15 15:27:02Z,u01, 36,100,movements,el-ex, lt, nd,280943.68665029167, -0.007178097546517905, 0.4553022212860088, 0.2784131516553559, 0.008149287663400173, 0.005990879610180855, 0.29292288422584534, -0.006446796003729105, -0.4397337734699249, -0.8981050252914429, -0.07920077443122864, 0.06123962998390198, -0.043087661266326904, 0.22399037310024306, 0.027853332121109863, 0.964881248613373,0.13437432824670692,-0.0871124267578125,-0.382049560546875,-0.9373779296875
20230215-1526,2023-02-15 15:27:02Z,u01, 37,100,movements,el-ex, lt, nd,280943.6966732917, -0.008500034126620433, 0.4554847542486972, 0.28160157627177285, 0.03331030160188675, 0.009822902269661427, 0.2763649523258209, -0.007633345667272806, -0.43989768624305725, -0.8980154395103455, -0.06811127811670303, 0.0707266628742218, -0.055262207984924316, 0.22412347079483913, 0.027585322304160127, 0.9646639672303043,0.135761057083514,-0.0824432373046875,-0.37445068359375,-0.946624755859375
20230215-1526,2023-02-15 15:27:02Z,u01, 38,100,movements,el-ex, lt, nd,280943.7066952917, -0.009779889664174632, 0.4559181449007644, 0.28461345873079885, 0.06042963266372681, -0.0007826040964573622, 0.2603737413883209, -0.00878080353140831, -0.44028687477111816, -0.8978142142295837, -0.05210175737738609, 0.08501657843589783, -0.055860161781311035, 0.2243783598799474, 0.02733579363585808, 0.9644277909855532,0.1370622417854616,-0.067047119140625,-0.364990234375,-0.95452880859375
20230215-1526,2023-02-15 15:27:02Z,u01, 39,100,movements,el-ex, lt, nd,280943.7167172917, -0.011167725844675623, 0.4567194294231144, 0.28747491119001045, 0.10449669510126114, -0.029330357909202576, 0.2513120472431183, -0.010022871196269989, -0.4410061538219452, -0.8974481225013733, -0.043947454541921616, 0.10660991072654724, -0.049542903900146484, 0.22482118167457088, 0.027044084197353886, 0.96416033156185,0.1382710850825233,-0.0565643310546875,-0.3447418212890625,-0.951263427734375
20230215-1526,2023-02-15 15:27:02Z,u01, 40,100,movements,el-ex, lt, nd,280943.7267402917, -0.012822932128611821, 0.4579340890755003, 0.2901295709722925, 0.14329051971435547, -0.061939433217048645, 0.21853959560394287, -0.011501440778374672, -0.4420959949493408, -0.8968939781188965, -0.03157411143183708, 0.11477980017662048, -0.039217472076416016, 0.2254856782496964, 0.026631056094537465, 0.9638625478659212,0.1393409923380112,-0.0485992431640625,-0.3289642333984375,-0.9410400390625
20230215-1526,2023-02-15 15:27:02Z,u01, 41,100,movements,el-ex, lt, nd,280943.7367622917, -0.014536561565730152, 0.4594518474087396, 0.29235929348669487, 0.16519582271575928, -0.0809786394238472, 0.17877088487148285, -0.013028598390519619, -0.44345685839653015, -0.8962010145187378, -0.02363826334476471, 0.1163390576839447, -0.022317111492156982, 0.2263070081651006, 0.026165581736479784, 0.9635593469761146,0.1401918149841278,-0.038116455078125,-0.3266143798828125,-0.92828369140625
20230215-1526,2023-02-15 15:27:02Z,u01, 42,100,movements,el-ex, lt, nd,280943.7467852917, -0.016232134310001024, 0.46114703115122213, 0.2942642400100194, 0.17660123109817505, -0.08962885290384293, 0.15889646112918854, -0.014535930939018726, -0.4449756145477295, -0.8954247236251831, -0.02057453617453575, 0.11588943004608154, -0.01483839750289917, 0.22721758475644235, 0.025686855890286752, 0.9632572031816106,0.14088264518658247,-0.038482666015625,-0.328033447265625,-0.9120941162109375
20230215-1526,2023-02-15 15:27:02Z,u01, 43,100,movements,el-ex, lt, nd,280943.7568072917, -0.017917136364407768, 0.46296931256873214, 0.2959942301869102, 0.19434906542301178, -0.0876368060708046, 0.1450355052947998, -0.016030147671699524, -0.4466068148612976, -0.8945866823196411, -0.01088634878396988, 0.12125900387763977, -0.019033312797546387, 0.22819154099517658, 0.02520457303246392, 0.9629511879678695,0.14148573188435346,-0.03240966796875,-0.3283843994140625,-0.910064697265625
20230215-1526,2023-02-15 15:27:02Z,u01, 44,100,movements,el-ex, lt, nd,280943.76683029166, -0.019431630989797444, 0.46511791504488076, 0.29771426236340753, 0.2419314682483673, -0.060310643166303635, 0.1607958972454071, -0.01736629009246826, -0.4485282003879547, -0.8935999274253845, -0.0016766656190156937, 0.13254931569099426, -0.03224235773086548, 0.22931103735345712, 0.02482913294996905, 0.9626052895384473,0.1420943361218838,-0.0238494873046875,-0.32086181640625,-0.9192657470703125
20230215-1526,2023-02-15 15:27:02Z,u01, 45,100,movements,el-ex, lt, nd,280943.77685229166, -0.020863521657108686, 0.46797282673612595, 0.29971985700408565, 0.3408881723880768, -0.04592425003647804, 0.18246017396450043, -0.01861901953816414, -0.45107799768447876, -0.8922902941703796, 0.008410900831222534, 0.15369954705238342, -0.04789531230926514, 0.2307609991258528, 0.02458072328916503, 0.9621560361279783,0.14283176620990348,-0.014892578125,-0.308197021484375,-0.9315948486328125
20230215-1526,2023-02-15 15:27:02Z,u01, 46,100,movements,el-ex, lt, nd,280943.78687429166, -0.022340548539055656, 0.4722061926823653, 0.30203339117218825, 0.5256162285804749, -0.04119713604450226, 0.20973220467567444, -0.019894098863005638, -0.4548521637916565, -0.8903447389602661, 0.020138252526521683, 0.18756404519081116, -0.06416887044906616, 0.23287274883814799, 0.024452302336899514, 0.9615244207041862,0.14367733369153085,-0.0046844482421875,-0.282135009765625,-0.9478607177734375
20230215-1526,2023-02-15 15:27:02Z,u01, 47,100,movements,el-ex, lt, nd,280943.7968972917, -0.023954759374569087, 0.47859310052342074, 0.30474254468380946, 0.7622772455215454, -0.032338932156562805, 0.2392972856760025, -0.02126125805079937, -0.4605308175086975, -0.887389063835144, 0.033498816192150116, 0.20892873406410217, -0.07397574186325073, 0.2360224725312732, 0.024471774458577747, 0.9606110090249709,0.14464082439000334,0.006622314453125,-0.25714111328125,-0.9595947265625
20230215-1526,2023-02-15 15:27:02Z,u01, 48,100,movements,el-ex, lt, nd,280943.8069192917, -0.025860800674166372, 0.487155474669345, 0.30765574394472495, 0.9464742541313171, -0.08833429217338562, 0.22853198647499084, -0.02284981496632099, -0.4681141674518585, -0.8833724856376648, 0.05113961920142174, 0.22893273830413818, -0.0664260983467102, 0.24023120028677808, 0.024550218211434296, 0.9594193021081865,0.14560498583449077,0.0184173583984375,-0.2450408935546875,-0.959259033203125
20230215-1526,2023-02-15 15:27:02Z,u01, 49,100,movements,el-ex, lt, nd,280943.8169422917, -0.028509459632659714, 0.4971994695757517, 0.310346932275358, 1.0638597011566162, -0.18103519082069397, 0.1877824366092682, -0.025054190307855606, -0.4769659638404846, -0.8785645961761475, 0.0715324729681015, 0.23561781644821167, -0.049566566944122314, 0.24520128675247188, 0.024373037456904497, 0.9580566380350494,0.14631997038093805,0.0395355224609375,-0.2351226806640625,-0.937744140625
20230215-1526,2023-02-15 15:27:02Z,u01, 50,100,movements,el-ex, lt, nd,280943.8269642917, -0.03162847485167801, 0.5080272671892208, 0.312819319293551, 1.0968514680862427, -0.19718407094478607, 0.18252569437026978, -0.027629375457763672, -0.4864546060562134, -0.8732688426971436, 0.07236815243959427, 0.19548487663269043, -0.029822587966918945, 0.25057655726612915, 0.024020063232537966, 0.9565956132824497,0.1468300759255415,0.0484619140625,-0.261077880859375,-0.917388916015625
20230215-1526,2023-02-15 15:27:02Z,u01, 51,100,movements,el-ex, lt, nd,280943.8369872917, -0.034635057205395024, 0.5186612825035881, 0.3154045982211283, 1.0273765325546265, -0.1441805064678192, 0.19828175008296967, -0.030073964968323708, -0.49571794271469116, -0.8679627180099487, 0.04644665867090225, 0.1380062699317932, -0.003161609172821045, 0.25584216243552316, 0.023736802434453277, 0.9551217045149599,0.14738976955047045,0.033416748046875,-0.3253631591796875,-0.8866424560546875
20230215-1526,2023-02-15 15:27:02Z,u01, 52,100,movements,el-ex, lt, nd,280943.8470092917, -0.037035660124921314, 0.5283147960575905, 0.3181227488024395, 0.9099687337875366, -0.05809755623340607, 0.1992436647415161, -0.031978823244571686, -0.5040786266326904, -0.8630655407905579, 0.004635084420442581, 0.09848487377166748, 0.025007009506225586, 0.2605869869716361, 0.023699461233568916, 0.9537294269707844,0.1480975156161854,-0.0059661865234375,-0.3846282958984375,-0.852569580078125
20230215-1526,2023-02-15 15:27:02Z,u01, 53,100,movements,el-ex, lt, nd,280943.8570312917, -0.03848236764391736, 0.5366889447086951, 0.32083275929644806, 0.7732082009315491, 0.045099932700395584, 0.20414415001869202, -0.03306382894515991, -0.5112932324409485, -0.8587700128555298, -0.02473645657300949, 0.07792848348617554, 0.038884758949279785, 0.26464617501183746, 0.02402882826560855, 0.9524701069721082,0.1489485128524632,-0.045196533203125,-0.4203033447265625,-0.827667236328125
20230215-1526,2023-02-15 15:27:02Z,u01, 54,100,movements,el-ex, lt, nd,280943.8670542917, -0.03899657874447837, 0.5435136502143862, 0.32365935949736785, 0.6064273715019226, 0.13776782155036926, 0.228162944316864, -0.03336859121918678, -0.5171465277671814, -0.8552461862564087, -0.026979908347129822, 0.06081724166870117, 0.038168489933013916, 0.2678928256193709, 0.024705303271380246, 0.9513769012979486,0.1500165235087664,-0.062469482421875,-0.4465484619140625,-0.8166656494140625
20230215-1526,2023-02-15 15:27:02Z,u01, 55,100,movements,el-ex, lt, nd,280943.8770762917, -0.03887684944861185, 0.5485575501931165, 0.3267514070361535, 0.416422039270401, 0.203914612531662, 0.25962716341018677, -0.03316438943147659, -0.5214569568634033, -0.8526328206062317, -0.011910062283277512, 0.05433976650238037, 0.012758493423461914, 0.27023883555078243, 0.025584348921189094, 0.9504791927158914,0.15134606848267712,-0.053863525390625,-0.464385986328125,-0.8255157470703125
20230215-1526,2023-02-15 15:27:02Z,u01, 56,100,movements,el-ex, lt, nd,280943.88709929166, -0.03843512456321892, 0.5516414293829381, 0.3302215125293932, 0.22732235491275787, 0.24961046874523163, 0.307691365480423, -0.03272580727934837, -0.5240858793258667, -0.8510364294052124, 0.00013304129242897034, 0.06398773193359375, -0.016685187816619873, 0.2716224559773562, 0.026514861472972728, 0.9498010329231628,0.1529577001647627,-0.0378875732421875,-0.4655914306640625,-0.855621337890625
20230215-1526,2023-02-15 15:27:02Z,u01, 57,100,movements,el-ex, lt, nd,280943.89712129167, -0.03778417137789162, 0.5530812285346239, 0.3342040774712652, 0.09117063134908676, 0.29549193382263184, 0.3568434715270996, -0.032143279910087585, -0.5253115892410278, -0.8503026366233826, 0.005074203014373779, 0.07613867521286011, -0.026711583137512207, 0.2722009127933035, 0.02748354806482282, 0.9492944439182166,0.15489154026502702,-0.0297698974609375,-0.4535675048828125,-0.87518310546875
20230215-1526,2023-02-15 15:27:02Z,u01, 58,100,movements,el-ex, lt, nd,280943.9071442917, -0.03701017206714308, 0.5533850154182912, 0.3386896299820891, 0.0017886892892420292, 0.3219493627548218, 0.40610530972480774, -0.03147922828793526, -0.5255700349807739, -0.8501677513122559, 0.005691889673471451, 0.07719063758850098, -0.030355989933013916, 0.2722216900313767, 0.02848658818669681, 0.9488932490364722,0.15711586150728338,-0.02569580078125,-0.44879150390625,-0.880035400390625
20230215-1526,2023-02-15 15:27:02Z,u01, 59,100,movements,el-ex, lt, nd,280943.9171662917, -0.03640289308528635, 0.5529868134118565, 0.3436764464001948, -0.04502861946821213, 0.3203067481517792, 0.43880972266197205, -0.03097054734826088, -0.5252312421798706, -0.8503957986831665, 0.007655138149857521, 0.08547312021255493, -0.02410072088241577, 0.27191286139995374, 0.02941953648634104, 0.9485426274398366,0.15957670496610837,-0.024932861328125,-0.4442291259765625,-0.878570556640625
20230215-1526,2023-02-15 15:27:02Z,u01, 60,100,movements,el-ex, lt, nd,280943.9271882917, -0.03605664905194172, 0.5523408752368938, 0.3489219670493961, -0.04959333315491676, 0.2952820658683777, 0.4567813575267792, -0.030688324943184853, -0.5246814489364624, -0.8507453203201294, 0.007876448333263397, 0.10047197341918945, 0.0015478730201721191, 0.2715010416109088, 0.03024125321985156, 0.9482013518002017,0.16213182626594402,-0.0226593017578125,-0.43212890625,-0.8626556396484375
20230215-1526,2023-02-15 15:27:02Z,u01, 61,100,movements,el-ex, lt, nd,280943.9372112917, -0.03603290123335501, 0.5517113793542788, 0.3542998250465096, -0.037808310240507126, 0.2713328003883362, 0.4590176045894623, -0.030680013820528984, -0.5241454839706421, -0.8510759472846985, 0.0014594458043575287, 0.11672061681747437, 0.02322554588317871, 0.27111900397644006, 0.030927559714893842, 0.947845090839498,0.16470458461154888,-0.02557373046875,-0.4145050048828125,-0.837646484375
20230215-1526,2023-02-15 15:27:02Z,u01, 62,100,movements,el-ex, lt, nd,280943.9472332917, -0.036258601225424784, 0.5512027200095566, 0.3596645071495947, -0.03617356717586517, 0.24850285053253174, 0.4565102756023407, -0.030881762504577637, -0.5237122178077698, -0.851335346698761, -0.01025591790676117, 0.12684649229049683, 0.04939436912536621, 0.27081341496152084, 0.031502759528375335, 0.9474708319371892,0.1672325845907267,-0.033203125,-0.4010162353515625,-0.814178466796875
20230215-1526,2023-02-15 15:27:02Z,u01, 63,100,movements,el-ex, lt, nd,280943.9572562917, -0.036510803742167544, 0.5504231083356672, 0.3650517136733734, -0.09112949669361115, 0.2697213292121887, 0.46837812662124634, -0.03111136518418789, -0.5230478644371033, -0.8517352938652039, -0.031983714550733566, 0.12987476587295532, 0.06047546863555908, 0.2703805295445569, 0.03204271602183559, 0.9471239102397335,0.1697759261162318,-0.052978515625,-0.394012451171875,-0.7956085205078125
20230215-1526,2023-02-15 15:27:02Z,u01, 64,100,movements,el-ex, lt, nd,280943.9672782917, -0.03655390796113879, 0.5489266867495564, 0.3706770766015706, -0.1787804514169693, 0.30813077092170715, 0.4998389482498169, -0.031176647171378136, -0.5217719078063965, -0.8525151610374451, -0.05186166241765022, 0.12284624576568604, 0.05945479869842529, 0.26958605301514726, 0.03264634873473619, 0.9468404771062549,0.17248373084116286,-0.073089599609375,-0.394012451171875,-0.7891387939453125
20230215-1526,2023-02-15 15:27:02Z,u01, 65,100,movements,el-ex, lt, nd,280943.97730129166, -0.03637047912000636, 0.5463488757548681, 0.3765547247717589, -0.3016424775123596, 0.337956041097641, 0.5168797373771667, -0.03106907568871975, -0.51957106590271, -0.8538621664047241, -0.06908959895372391, 0.11187160015106201, 0.046931564807891846, 0.2682553213198417, 0.0332868346551851, 0.9466644310021728,0.17537769635524766,-0.0931854248046875,-0.40460205078125,-0.8018798828125
20230215-1526,2023-02-15 15:27:02Z,u01, 66,100,movements,el-ex, lt, nd,280943.98732329166, -0.03592425677611868, 0.5423773951270726, 0.38241898185822687, -0.4543710947036743, 0.3576146960258484, 0.5114395618438721, -0.030761931091547012, -0.5161736607551575, -0.8559313416481018, -0.07830788195133209, 0.11625617742538452, 0.03764820098876953, 0.266241154343073, 0.03391149821814606, 0.9466560067377742,0.17834766758254977,-0.1043243408203125,-0.40582275390625,-0.8116607666015625
20230215-1526,2023-02-15 15:27:02Z,u01, 67,100,movements,el-ex, lt, nd,280943.99734529166, -0.03511687292618584, 0.536851723595256, 0.38814805116412004, -0.6124739646911621, 0.392383873462677, 0.5087790489196777, -0.030170537531375885, -0.5114331245422363, -0.8587932586669922, -0.08848178386688232, 0.11783277988433838, 0.03263658285140991, 0.26345979433651023, 0.034529785703784635, 0.9468407107461705,0.18135395348138098,-0.1138153076171875,-0.3958892822265625,-0.822509765625
20230215-1526,2023-02-15 15:27:02Z,u01, 68,100,movements,el-ex, lt, nd,280944.00736829167, -0.033858814036225385, 0.5298119368414158, 0.3939160172078815, -0.7565116286277771, 0.4431841969490051, 0.5313798189163208, -0.02921126037836075, -0.50537109375, -0.8624075055122375, -0.09813857823610306, 0.10766607522964478, 0.03211575746536255, 0.2599169945364996, 0.03520495688362466, 0.9471895680106986,0.1844873512939119,-0.122955322265625,-0.3934173583984375,-0.82861328125
20230215-1526,2023-02-15 15:27:02Z,u01, 69,100,movements,el-ex, lt, nd,280944.0173902917, -0.03216454211514384, 0.5213763871359616, 0.39989400865931746, -0.8880115747451782, 0.4937696158885956, 0.5549746155738831, -0.027886174619197845, -0.49807411432266235, -0.8666859269142151, -0.10950393974781036, 0.0949828028678894, 0.030595779418945312, 0.25566401631875507, 0.035957471622407734, 0.9476638550289921,0.18781948178836064,-0.1331329345703125,-0.4022674560546875,-0.83294677734375
20230215-1526,2023-02-15 15:27:02Z,u01, 70,100,movements,el-ex, lt, nd,280944.0274132917, -0.029905157146383355, 0.5117697061662716, 0.4060888516890611, -0.9891459345817566, 0.575086772441864, 0.5795767903327942, -0.026069799438118935, -0.4897209703922272, -0.871489405632019, -0.11687451601028442, 0.09355714917182922, 0.03413277864456177, 0.25079135111806805, 0.0368647370564045, 0.9482230301750009,0.1913578434453147,-0.1414794921875,-0.3997955322265625,-0.835723876953125
20230215-1526,2023-02-15 15:27:02Z,u01, 71,100,movements,el-ex, lt, nd,280944.0374352917, -0.026838212580097713, 0.5015646345038518, 0.41271270428800566, -1.0005403757095337, 0.6715723276138306, 0.6380544304847717, -0.023529762402176857, -0.48079803586006165, -0.8765156269073486, -0.1153862401843071, 0.0836271345615387, 0.03217047452926636, 0.24553841631820014, 0.03811936737127426, 0.9487631743917351,0.195208283715527,-0.1424713134765625,-0.39630126953125,-0.8405303955078125
20230215-1526,2023-02-15 15:27:02Z,u01, 72,100,movements,el-ex, lt, nd,280944.0474582917, -0.023404607991303606, 0.4917250218701567, 0.4201019269164929, -0.9222496747970581, 0.710239827632904, 0.7017434239387512, -0.02062973938882351, -0.47214722633361816, -0.8812782764434814, -0.10876477509737015, 0.08837354183197021, 0.01753920316696167, 0.2403936138256376, 0.03964568855150144, 0.9491378619220524,0.19943996382601636,-0.1354217529296875,-0.3948516845703125,-0.8518829345703125
20230215-1526,2023-02-15 15:27:02Z,u01, 73,100,movements,el-ex, lt, nd,280944.0574802917, -0.019930536525939024, 0.48291880198637405, 0.42802668111497433, -0.8059076070785522, 0.7226512432098389, 0.7339348793029785, -0.0176501777023077, -0.4643661677837372, -0.8854674100875854, -0.09700434654951096, 0.13474589586257935, 0.009033024311065674, 0.23570820706489765, 0.041327323177193, 0.9492971414087593,0.20388343262119862,-0.1227264404296875,-0.362091064453125,-0.87139892578125
20230215-1526,2023-02-15 15:27:02Z,u01, 74,100,movements,el-ex, lt, nd,280944.0675032917, -0.016561771640088777, 0.47515769644119216, 0.43638379290372636, -0.7231981754302979, 0.7205161452293396, 0.7808054089546204, -0.014726394787430763, -0.45747867226600647, -0.8890986442565918, -0.0779859870672226, 0.18416336178779602, 0.0064844489097595215, 0.23150440352570378, 0.04308590334033294, 0.9492563609713747,0.2084745022977667,-0.1035919189453125,-0.297210693359375,-0.8790283203125
20230215-1526,2023-02-15 15:27:02Z,u01, 75,100,movements,el-ex, lt, nd,280944.0775252917, -0.01331222183437524, 0.4677033713058219, 0.4453083950805009, -0.7588789463043213, 0.7411937713623047, 0.8306595087051392, -0.011882218532264233, -0.45083749294281006, -0.8925269842147827, -0.0566297248005867, 0.1785445213317871, 0.0022833943367004395, 0.2274306451098995, 0.04485334812788357, 0.9490873432763091,0.21329955059879316,-0.08074951171875,-0.2661895751953125,-0.8876495361328125
20230215-1526,2023-02-15 15:27:02Z,u01, 76,100,movements,el-ex, lt, nd,280944.0875472917, -0.00982592189977404, 0.4591381243143119, 0.45471422314785215, -0.9514926075935364, 0.8003103137016296, 0.8692708611488342, -0.008808156475424767, -0.44317564368247986, -0.8963915109634399, -0.04108805954456329, 0.1306910216808319, 0.017668306827545166, 0.22277750019634063, 0.04663079007245915, 0.9489457208776899,0.21839802887281312,-0.0574951171875,-0.289825439453125,-0.88665771484375
20230215-1526,2023-02-15 15:27:02Z,u01, 77,100,movements,el-ex, lt, nd,280944.09757029166, -0.005604661949348497, 0.447933881540809, 0.46454177043275086, -1.2846556901931763, 0.9063875079154968, 0.9126495122909546, -0.005051701329648495, -0.43310418725013733, -0.9013296961784363, -0.04366958886384964, 0.07412600517272949, 0.05661839246749878, 0.2167631129728458, 0.04846541732022294, 0.9489804783285118,0.22383229722272358,-0.04779052734375,-0.3365936279296875,-0.863800048828125
20230215-1526,2023-02-15 15:27:02Z,u01, 78,100,movements,el-ex, lt, nd,280944.10759229166, -0.00024597206030721724, 0.4328311505402073, 0.4749118560763691, -1.7346642017364502, 1.0451557636260986, 0.9676260352134705, -0.00022328898194245994, -0.4194425344467163, -0.9077818393707275, -0.045553058385849, 0.03107595443725586, 0.10545945167541504, 0.20873303172557825, 0.05039439172044857, 0.9492737093001083,0.22971790927701108,-0.0495758056640625,-0.3762359619140625,-0.8248138427734375
20230215-1526,2023-02-15 15:27:02Z,u01, 79,100,movements,el-ex, lt, nd,280944.1176152917, 0.006485513733228277, 0.4129103618606028, 0.48596028915793443, -2.253843307495117, 1.2012876272201538, 1.0291839838027954, 0.0059404089115560055, -0.4012767970561981, -0.915937602519989, -0.03741926699876785, 0.010468780994415283, 0.15736210346221924, 0.19820540603436826, 0.05240062542102393, 0.949847898165375,0.23613089231201517,-0.0407867431640625,-0.3940582275390625,-0.7794342041015625
20230215-1526,2023-02-15 15:27:02Z,u01, 80,100,movements,el-ex, lt, nd,280944.1276372917, 0.014629336626341789, 0.38781823224268874, 0.49785662749422477, -2.7693798542022705, 1.3489848375320435, 1.1050713062286377, 0.013542425818741322, -0.37816956639289856, -0.9256373047828674, -0.020912393927574158, 0.019450783729553223, 0.21730899810791016, 0.18498345358327437, 0.05442870653235906, 0.9506404091579362,0.24310777135896158,-0.02032470703125,-0.376312255859375,-0.7335357666015625
20230215-1526,2023-02-15 15:27:02Z,u01, 81,100,movements,el-ex, lt, nd,280944.1376602917, 0.02414924895098285, 0.3579402882974721, 0.5108320651531988, -3.2263588905334473, 1.4906154870986938, 1.1891182661056519, 0.02261648140847683, -0.35034582018852234, -0.9363473057746887, -0.004000730812549591, 0.0442240834236145, 0.2707894444465637, 0.16922672089439483, 0.05646818782098481, 0.9514915256893862,0.250674133011902,0.0057373046875,-0.3361053466796875,-0.6855621337890625
20230215-1526,2023-02-15 15:27:02Z,u01, 82,100,movements,el-ex, lt, nd,280944.1476822917, 0.034859593611753364, 0.3241774157474387, 0.5249391955680913, -3.5743284225463867, 1.5850459337234497, 1.2656428813934326, 0.03303717076778412, -0.3185291588306427, -0.9473371505737305, 0.011472739279270172, 0.09796345233917236, 0.32129955291748047, 0.15136635656772432, 0.05847767398320452, 0.9522188594621668,0.2587428198331207,0.0321044921875,-0.2668609619140625,-0.64544677734375
20230215-1526,2023-02-15 15:27:02Z,u01, 83,100,movements,el-ex, lt, nd,280944.1577042917, 0.04638844576989342, 0.28779805542935916, 0.5401720314225918, -3.775843381881714, 1.6300714015960693, 1.3382518291473389, 0.0444645918905735, -0.2838415205478668, -0.9578396677970886, 0.02627517282962799, 0.16676095128059387, 0.3720700144767761, 0.13204306567720217, 0.0603720357861775, 0.952643052220017,0.26719088598187163,0.0563201904296875,-0.1698150634765625,-0.60693359375
20230215-1526,2023-02-15 15:27:02Z,u01, 84,100,movements,el-ex, lt, nd,280944.1677272917, 0.0587112836604311, 0.25044107413639455, 0.5565616187425761, -3.8168246746063232, 1.702199935913086, 1.4180678129196167, 0.05684700980782509, -0.2478312999010086, -0.9671339392662048, 0.037269227206707, 0.22776608169078827, 0.41922134160995483, 0.1120372461211363, 0.06229511984386048, 0.9525825107893466,0.2759594575524105,0.082305908203125,-0.0670623779296875,-0.565704345703125
20230215-1526,2023-02-15 15:27:02Z,u01, 85,100,movements,el-ex, lt, nd,280944.1777492917, 0.07233156197405252, 0.21369771173100963, 0.5740058031105273, -3.7113704681396484, 1.8184099197387695, 1.4816540479660034, 0.07062464207410812, -0.21207493543624878, -0.9746980667114258, 0.04374000430107117, 0.27652814984321594, 0.4552278518676758, 0.0920394378636956, 0.06465055030248143, 0.9519118045669207,0.28497892052486085,0.1042327880859375,0.0228424072265625,-0.5304107666015625
20230215-1526,2023-02-15 15:27:02Z,u01, 86,100,movements,el-ex, lt, nd,280944.1877722917, 0.08756596230714624, 0.17883567887352822, 0.592376764719702, -3.4979212284088135, 1.9361010789871216, 1.5510329008102417, 0.0860593318939209, -0.17788393795490265, -0.9802811145782471, 0.04066493362188339, 0.335232675075531, 0.44349217414855957, 0.07260434140988589, 0.06773511085495722, 0.9505810350566013,0.29417034844122947,0.1221771240234375,0.1077728271484375,-0.5244598388671875
20230215-1526,2023-02-15 15:27:02Z,u01, 87,100,movements,el-ex, lt, nd,280944.19779429166, 0.10441312690193544, 0.1470901998968299, 0.6117295407653154, -3.1625020503997803, 2.0450048446655273, 1.637319803237915, 0.1030980721116066, -0.14656037092208862, -0.9838144183158875, 0.04872690141201019, 0.4136960804462433, 0.42692965269088745, 0.05430225937335694, 0.07172201656244934, 0.9485588259681799,0.30355116181649217,0.1361083984375,0.21075439453125,-0.549163818359375
20230215-1526,2023-02-15 15:27:02Z,u01, 88,100,movements,el-ex, lt, nd,280944.20781729167, 0.12278915588156608, 0.1195211923116363, 0.632070900574968, -2.7515616416931152, 2.1630544662475586, 1.7433782815933228, 0.12160703539848328, -0.11923682689666748, -0.9853904247283936, 0.07224063575267792, 0.48503583669662476, 0.41324687004089355, 0.037624742718558035, 0.07674088382557397, 0.9458517612493926,0.31314449643411557,0.1701812744140625,0.3191375732421875,-0.563934326171875
20230215-1526,2023-02-15 15:27:02Z,u01, 89,100,movements,el-ex, lt, nd,280944.21783929167, 0.14270217323482193, 0.09708187423127337, 0.6536117886505186, -2.2324066162109375, 2.274275302886963, 1.9085917472839355, 0.14154866337776184, -0.09692944586277008, -0.9851744174957275, 0.09987591207027435, 0.5331783294677734, 0.37225937843322754, 0.022978100554973093, 0.082974646050973, 0.9424396627166595,0.323101720150214,0.217315673828125,0.4062957763671875,-0.585113525390625
20230215-1526,2023-02-15 15:27:02Z,u01, 90,100,movements,el-ex, lt, nd,280944.22786129167, 0.16395293032892624, 0.08114991732562613, 0.6763969792174843, -1.5979138612747192, 2.3678252696990967, 2.078634023666382, 0.16268226504325867, -0.08106087893247604, -0.9833430647850037, 0.13159877061843872, 0.5472322106361389, 0.29961198568344116, 0.010991533031769463, 0.09059605636505057, 0.9383100954692734,0.3335352003213082,0.2682037353515625,0.45477294921875,-0.65130615234375
20230215-1526,2023-02-15 15:27:02Z,u01, 91,100,movements,el-ex, lt, nd,280944.2378842917, 0.18609559469672052, 0.0719847790443906, 0.6997538978314931, -1.0351125001907349, 2.386354684829712, 2.170311689376831, 0.1845441460609436, -0.07192263007164001, -0.9801890850067139, 0.1574816256761551, 0.5415729880332947, 0.23259997367858887, 0.0018297553969999826, 0.09950941019207263, 0.933599272261081,0.34421925447913787,0.317962646484375,0.4701690673828125,-0.710723876953125
20230215-1526,2023-02-15 15:27:02Z,u01, 92,100,movements,el-ex, lt, nd,280944.2479062917, 0.20805488553473814, 0.06783579102645258, 0.7228847207508363, -0.7086174488067627, 2.3123576641082764, 2.1748852729797363, 0.2060820460319519, -0.06778377294540405, -0.9761841893196106, 0.1822236329317093, 0.5131268501281738, 0.1042969822883606, -0.005150320784876319, 0.10900176747730386, 0.928550748403838,0.354803626703398,0.364349365234375,0.4622039794921875,-0.805450439453125
20230215-1526,2023-02-15 15:27:02Z,u01, 93,100,movements,el-ex, lt, nd,280944.2579292917, 0.22942593232427513, 0.06590456439311033, 0.7456248728405083, -0.6926419734954834, 2.2583000659942627, 2.1596133708953857, 0.2269248217344284, -0.06585686653852463, -0.9716830849647522, 0.2220803201198578, 0.4204864501953125, 0.011905252933502197, -0.011186929015441624, 0.11846229735900277, 0.9233099620629327,0.36515783607823327,0.418853759765625,0.41009521484375,-0.923828125
20230215-1526,2023-02-15 15:27:02Z,u01, 94,100,movements,el-ex, lt, nd,280944.2679512917, 0.25044395755199644, 0.06292064488407309, 0.7685067547049701, -1.0117127895355225, 2.236158609390259, 2.1190574169158936, 0.24734365940093994, -0.06287913769483566, -0.9668853878974915, 0.22989024221897125, 0.26298296451568604, -0.044802844524383545, -0.017862800128836818, 0.12742932722301326, 0.9178916640381809,0.375389906851821,0.470428466796875,0.281402587890625,-0.9886474609375
20230215-1526,2023-02-15 15:27:02Z,u01, 95,100,movements,el-ex, lt, nd,280944.2779742917, 0.2715430918223849, 0.05582081234160353, 0.7921772348448846, -1.6033776998519897, 2.260016441345215, 2.0684823989868164, 0.26780053973197937, -0.05579182878136635, -0.9618576765060425, 0.17906838655471802, 0.10167507827281952, -0.07020103931427002, -0.026692049591030716, 0.13549431321370956, 0.9122734252661568,0.3855981853767609,0.4693145751953125,0.12042236328125,-1.026275634765625
20230215-1526,2023-02-15 15:27:02Z,u01, 96,100,movements,el-ex, lt, nd,280944.2879962917, 0.29332047954046825, 0.04268065894598481, 0.8175326894017297, -2.3240914344787598, 2.348545789718628, 2.069735050201416, 0.288869172334671, -0.042667701840400696, -0.9564173221588135, 0.09957385063171387, -0.028590776026248932, -0.06648612022399902, -0.0387017411689401, 0.14245533089142096, 0.9063147774658888,0.39598244996299664,0.4173126220703125,-0.01702880859375,-1.028961181640625
20230215-1526,2023-02-15 15:27:02Z,u01, 97,100,movements,el-ex, lt, nd,280944.2980182917, 0.316626558925387, 0.023471179059246616, 0.8456439911207957, -3.0082125663757324, 2.4909894466400146, 2.12886381149292, 0.3112768232822418, -0.023469023406505585, -0.9500294327735901, 0.033281922340393066, -0.13404738903045654, -0.04916185140609741, -0.054118083778417696, 0.148514348955088, 0.8997093234251121,0.40686342437894263,0.3642425537109375,-0.1183929443359375,-1.01373291015625
20230215-1526,2023-02-15 15:27:02Z,u01, 98,100,movements,el-ex, lt, nd,280944.30804129166, 0.34180875300342434, -0.0008221930368906916, 0.8768269263493407, -3.5727713108062744, 2.5902538299560547, 2.1862423419952393, 0.33519163727760315, 0.0008221929310820997, -0.9421495795249939, 0.0014783143997192383, -0.19953733682632446, -0.03809022903442383, -0.07256364723826378, 0.15381714924672193, 0.8922649964529088,0.4182557425397237,0.3333282470703125,-0.185516357421875,-0.9865264892578125
20230215-1526,2023-02-15 15:27:02Z,u01, 99,100,movements,el-ex, lt, nd,280944.31806329166, 0.36806260562034926, -0.02864440951097277, 0.9106911401468861, -3.9658823013305664, 2.5217695236206055, 2.220641613006592, 0.3596608638763428, 0.028640491887927055, -0.9326434135437012, 0.03395485877990723, -0.24131743609905243, -0.04117244482040405, -0.09311289886234111, 0.15814002677774255, 0.884005633788112,0.42994858600295466,0.35650634765625,-0.205718994140625,-0.9766998291015625
20230215-1526,2023-02-15 15:27:02Z,u01, 100,100,movements,el-ex, lt, nd,280944.3280862917, 0.39365528402375943, -0.05869061201096373, 0.9469841719254822, -4.279300212860107, 2.2476372718811035, 2.261009931564331, 0.3829062581062317, 0.05865692347288132, -0.9219231009483337, 0.1258065402507782, -0.27166956663131714, -0.03461986780166626, -0.11474485790843764, 0.16084800283928188, 0.8750381147233477,0.4418933468747908,0.4446563720703125,-0.2187042236328125,-0.9655914306640625
20230215-1526,2023-02-15 15:27:02Z,u01, 101,100,movements,el-ex, lt, nd,280944.3381082917, 0.4171456697572616, -0.09018048314308075, 0.9852428560553622, -4.480726718902588, 1.8625611066818237, 2.2513537406921387, 0.40350618958473206, 0.09005829691886902, -0.9105340242385864, 0.24024686217308044, -0.24726957082748413, -0.024356722831726074, -0.13668333964568322, 0.16140212399002116, 0.8655384073342939,0.4539935912131645,0.5785369873046875,-0.1921539306640625,-0.9446868896484375
20230215-1526,2023-02-15 15:27:02Z,u01, 102,100,movements,el-ex, lt, nd,280944.3481312917, 0.44274508332068646, -0.12945569590522887, 1.025342687157196, -4.564835071563721, 1.3583298921585083, 2.2121758460998535, 0.42483657598495483, 0.12909440696239471, -0.8960181474685669, 0.30645614862442017, -0.19994093477725983, -0.018059611320495605, -0.16246590114476384, 0.15998677227738356, 0.8553574677969892,0.465158554204739,0.6957550048828125,-0.1142425537109375,-0.9249725341796875
20230215-1526,2023-02-15 15:27:02Z,u01, 103,100,movements,el-ex, lt, nd,280944.3581532917, 0.46471099953273576, -0.1668847610673832, 1.0659884688697665, -4.5272626876831055, 0.9072274565696716, 2.1192591190338135, 0.4419381320476532, 0.16611120104789734, -0.8815314769744873, 0.3329794704914093, -0.16177766025066376, -0.0031578540802001953, -0.18645221360817085, 0.15642835942705383, 0.8449793953424283,0.4762095470159123,0.7570343017578125,-0.0312347412109375,-0.89923095703125
20230215-1526,2023-02-15 15:27:02Z,u01, 104,100,movements,el-ex, lt, nd,280944.3681752917, 0.48396826388942626, -0.20214941773055992, 1.106775721990953, -4.4354143142700195, 0.5864039063453674, 2.1010518074035645, 0.4558206796646118, 0.20077544450759888, -0.8671312928199768, 0.3161367177963257, -0.09043911099433899, 0.014714360237121582, -0.2086416215615641, 0.15133741728944464, 0.8344542841040162,0.4870849186623771,0.779296875,0.049407958984375,-0.8689422607421875
20230215-1526,2023-02-15 15:27:02Z,u01, 105,100,movements,el-ex, lt, nd,280944.3781982917, 0.5015452895672261, -0.23458091294257763, 1.1480692368103675, -4.2585015296936035, 0.31335216760635376, 2.143634557723999, 0.4676133692264557, 0.23243539035320282, -0.8528255820274353, 0.2941511869430542, 0.032060474157333374, -0.0017275810241699219, -0.22901850796687812, 0.14538817126739792, 0.8236314555182382,0.49804016361561815,0.7623138427734375,0.1858062744140625,-0.8450775146484375
20230215-1526,2023-02-15 15:27:02Z,u01, 106,100,movements,el-ex, lt, nd,280944.3882202917, 0.5171428423018615, -0.26378678279544404, 1.1892181987059696, -4.006998538970947, -0.009312708862125874, 2.118001937866211, 0.4772971272468567, 0.26073819398880005, -0.8391680121421814, 0.3141610026359558, 0.14766329526901245, -0.07878541946411133, -0.2473132511500289, 0.13875209182110962, 0.8127114609988924,0.5090028432005202,0.7726593017578125,0.340362548828125,-0.8807220458984375
20230215-1526,2023-02-15 15:27:02Z,u01, 107,100,movements,el-ex, lt, nd,280944.3982432917, 0.5300585500029681, -0.2899253406566823, 1.2293137741520412, -3.72055983543396, -0.34658899903297424, 2.0596909523010254, 0.48448342084884644, 0.2858806848526001, -0.8267695903778076, 0.34896689653396606, 0.2508929967880249, -0.1545078158378601, -0.26336480052101685, 0.13135515048571933, 0.801997282959365,0.5197931940071154,0.812713623046875,0.4715423583984375,-0.95263671875
20230215-1526,2023-02-15 15:27:02Z,u01, 108,100,movements,el-ex, lt, nd,280944.40826529165, 0.5402564448558427, -0.31299965455937584, 1.2680488123177254, -3.387362241744995, -0.6426438689231873, 2.0387868881225586, 0.4893655478954315, 0.3079139292240143, -0.8159107565879822, 0.36999422311782837, 0.3377159535884857, -0.21013593673706055, -0.277167242957455, 0.12338129559289127, 0.7915845697567867,0.5304235680849021,0.8506317138671875,0.5957183837890625,-1.0061492919921875
20230215-1526,2023-02-15 15:27:02Z,u01, 109,100,movements,el-ex, lt, nd,280944.41828829166, 0.5484234921841826, -0.33250596485260464, 1.30535980780361, -3.0091207027435303, -0.8172857165336609, 2.048030376434326, 0.49278724193573, 0.32641276717185974, -0.8066073656082153, 0.348551869392395, 0.38197654485702515, -0.27032744884490967, -0.28874852670030104, 0.11541494214075247, 0.7814475923110997,0.5409651572269573,0.8543701171875,0.682647705078125,-1.0464630126953125
20230215-1526,2023-02-15 15:27:02Z,u01, 110,100,movements,el-ex, lt, nd,280944.42831029167, 0.55536402831217, -0.3487008924429829, 1.340971937739064, -2.6504645347595215, -0.9332722425460815, 2.0101475715637207, 0.49552121758461, 0.34167715907096863, -0.7985708713531494, 0.3125689923763275, 0.43473580479621887, -0.3550087809562683, -0.2984606857762149, 0.10786925689157664, 0.7716298023013214,0.5512467179703375,0.8247222900390625,0.73577880859375,-1.113861083984375
20230215-1526,2023-02-15 15:27:02Z,u01, 111,100,movements,el-ex, lt, nd,280944.43833229167, 0.560810909455168, -0.36188936799654403, 1.3743572978856646, -2.2648589611053467, -1.0841485261917114, 1.9408564567565918, 0.4974234402179718, 0.35404184460639954, -0.7919749617576599, 0.2795846462249756, 0.48564931750297546, -0.4255543351173401, -0.3063715178969039, 0.10074234245776588, 0.7623117541222044,0.5611312915333602,0.792083740234375,0.8190460205078125,-1.1883087158203125
20230215-1526,2023-02-15 15:27:02Z,u01, 112,100,movements,el-ex, lt, nd,280944.44835512503, 0.5646963923370353, -0.37238836518232216, 1.4053613455026883, -1.9109625816345215, -1.1830562353134155, 1.876853585243225, 0.49848008155822754, 0.36384114623069763, -0.7868527173995972, 0.23581862449645996, 0.43544474244117737, -0.46503931283950806, -0.31261892315386447, 0.09403751617926222, 0.7535608420866786,0.5705894077616831,0.7608489990234375,0.8308563232421875,-1.2389678955078125
20230215-1526,2023-02-15 15:27:02Z,u01, 113,100,movements,el-ex, lt, nd,280944.45837712503, 0.567887269043078, -0.38095031192091555, 1.4343435721085669, -1.6490439176559448, -1.2154085636138916, 1.8103280067443848, 0.4992944300174713, 0.37180283665657043, -0.7826031446456909, 0.1574743688106537, 0.3418812155723572, -0.4679613709449768, -0.31777090743014935, 0.08786395090618078, 0.7452642683973959,0.5795538544042361,0.6999969482421875,0.7563018798828125,-1.2556610107421875
20230215-1526,2023-02-15 15:27:02Z,u01, 114,100,movements,el-ex, lt, nd,280944.46840012504, 0.5710612347203456, -0.3885413571682967, 1.4617334881738375, -1.473857045173645, -1.2093826532363892, 1.729373574256897, 0.5002358555793762, 0.3788388967514038, -0.7786174416542053, 0.06656712293624878, 0.2440859079360962, -0.4380725622177124, -0.3224050694813107, 0.08213555604452966, 0.7373062022225016,0.5879525274113037,0.610107421875,0.670501708984375,-1.2365570068359375
20230215-1526,2023-02-15 15:27:02Z,u01, 115,100,movements,el-ex, lt, nd,280944.47842212504, 0.5746812048361907, -0.3961088230856599, 1.4879588199479288, -1.3729435205459595, -1.1820199489593506, 1.6453098058700562, 0.5014784336090088, 0.38583138585090637, -0.774372935295105, -0.008238136768341064, 0.13752976059913635, -0.39824968576431274, -0.3270125190866988, 0.07665731455011197, 0.7295830673906953,0.5957305059434552,0.528411865234375,0.574249267578125,-1.1955718994140625
20230215-1526,2023-02-15 15:27:02Z,u01, 116,100,movements,el-ex, lt, nd,280944.488445125, 0.5795463983757392, -0.40466604836956493, 1.5135896617032856, -1.3236122131347656, -1.1314431428909302, 1.5662404298782349, 0.5034133791923523, 0.39371180534362793, -0.7691332697868347, -0.0717117190361023, 0.030314654111862183, -0.3559582233428955, -0.3321934175843461, 0.07128046734426317, 0.7219403108236039,0.6028007308969362,0.4622802734375,0.4735260009765625,-1.14947509765625
20230215-1526,2023-02-15 15:27:02Z,u01, 117,100,movements,el-ex, lt, nd,280944.498467125, 0.5802987966445239, -0.41040255514917634, 1.5366251088191256, -1.3036454916000366, -1.0551190376281738, 1.4942022562026978, 0.5027453303337097, 0.39897850155830383, -0.766852855682373, -0.11595028638839722, -0.05409938097000122, -0.30657243728637695, -0.33504221791349903, 0.06572889302224758, 0.715082864977207,0.6099860128027716,0.4069061279296875,0.3802642822265625,-1.0984954833984375
20230215-1526,2023-02-15 15:27:02Z,u01, 118,100,movements,el-ex, lt, nd,280944.508489125, 0.5791591467441699, -0.4142085508393057, 1.5580285237998353, -1.2766821384429932, -0.9780256152153015, 1.444703459739685, 0.5010362863540649, 0.4024655222892761, -0.7661488652229309, -0.14312613010406494, -0.1001279354095459, -0.2609049677848816, -0.3365666470193784, 0.06040255622273956, 0.7086573985694982,0.6171539547851954,0.3710479736328125,0.3190155029296875,-1.0496826171875
20230215-1526,2023-02-15 15:27:02Z,u01, 119,100,movements,el-ex, lt, nd,280944.518512125, 0.5778990173318653, -0.4172121436801868, 1.5785747957423915, -1.228785514831543, -0.9180581569671631, 1.4066524505615234, 0.4994078576564789, 0.40521329641342163, -0.7657636404037476, -0.14979848265647888, -0.11876007914543152, -0.23640310764312744, -0.33770534009235825, 0.055437286361323876, 0.7024037722538894,0.6241079165775046,0.350677490234375,0.2895050048828125,-1.0120086669921875
20230215-1526,2023-02-15 15:27:02Z,u01, 120,100,movements,el-ex, lt, nd,280944.528534125, 0.5766034047531521, -0.41973921851821017, 1.5983797271882234, -1.1621110439300537, -0.9014295935630798, 1.373752236366272, 0.49785542488098145, 0.4075223207473755, -0.7655490636825562, -0.13877037167549133, -0.10109534859657288, -0.2193446159362793, -0.3386016930259467, 0.05073806027789551, 0.6962991278877743,0.6308262894742492,0.35150146484375,0.29241943359375,-0.99468994140625
20230215-1526,2023-02-15 15:27:02Z,u01, 121,100,movements,el-ex, lt, nd,280944.538557125, 0.5750847482536645, -0.4215997978747182, 1.617433698229892, -1.0551022291183472, -0.8903173208236694, 1.3615283966064453, 0.4962790012359619, 0.40922069549560547, -0.7656667232513428, -0.11610627174377441, -0.07229143381118774, -0.19514864683151245, -0.3391480761350839, 0.04631666555707125, 0.6903517175575693,0.6373756038033971,0.3694000244140625,0.3223419189453125,-0.9737701416015625
20230215-1526,2023-02-15 15:27:02Z,u01, 122,100,movements,el-ex, lt, nd,280944.548579125, 0.5734889024105181, -0.4224848243830651, 1.635830562208284, -0.9425531029701233, -0.8631134033203125, 1.3748819828033447, 0.4948597848415375, 0.4100280702114105, -0.7661532163619995, -0.10412797331809998, -0.05993041396141052, -0.1751004457473755, -0.339310670929483, 0.042328184808969355, 0.6845225289029578,0.6438208936067966,0.3879241943359375,0.344512939453125,-0.947845458984375
20230215-1526,2023-02-15 15:27:02Z,u01, 123,100,movements,el-ex, lt, nd,280944.55860212503, 0.571985435755557, -0.42217450881164714, 1.6536380831421031, -0.7885400652885437, -0.8208567500114441, 1.4035953283309937, 0.49377620220184326, 0.4097450077533722, -0.7670032978057861, -0.10070979595184326, -0.03024369478225708, -0.16388964653015137, -0.33909363014057164, 0.0389084588182696, 0.6787820684091338,0.6501972250079958,0.392120361328125,0.3633880615234375,-0.935791015625
20230215-1526,2023-02-15 15:27:02Z,u01, 124,100,movements,el-ex, lt, nd,280944.56862412504, 0.5705895948785928, -0.42019294297787824, 1.6707425728654288, -0.589799702167511, -0.787995457649231, 1.4454748630523682, 0.49314266443252563, 0.40793663263320923, -0.7683735489845276, -0.08550414443016052, 0.011176496744155884, -0.15617167949676514, -0.3383755605540368, 0.03626574023517195, 0.6731526905098704,0.6565455179299761,0.3990478515625,0.3989715576171875,-0.92547607421875
20230215-1526,2023-02-15 15:27:02Z,u01, 125,100,movements,el-ex, lt, nd,280944.57864612504, 0.5690047189142641, -0.4161621836027297, 1.6869069774904142, -0.34816017746925354, -0.7791439294815063, 1.4827239513397217, 0.49280622601509094, 0.40425318479537964, -0.7705331444740295, -0.06212690472602844, 0.047727346420288086, -0.17308557033538818, -0.3369625172622057, 0.034492011937624155, 0.6677044419340391,0.6629005597745877,0.4178314208984375,0.4356536865234375,-0.929718017578125
20230215-1526,2023-02-15 15:27:02Z,u01, 126,100,movements,el-ex, lt, nd,280944.588669125, 0.5667954287825899, -0.41018036927341617, 1.7018987644419779, -0.14927837252616882, -0.813461422920227, 1.4777132272720337, 0.49239230155944824, 0.39877474308013916, -0.7736462354660034, -0.031561583280563354, 0.07621607184410095, -0.20702087879180908, -0.3347496864390746, 0.0334595118099614, 0.6625244936986117,0.6692415505943206,0.4452667236328125,0.4645843505859375,-0.9609527587890625
20230215-1526,2023-02-15 15:27:02Z,u01, 127,100,movements,el-ex, lt, nd,280944.598691125, 0.5635017187213797, -0.4029441585835263, 1.7157660839093476, -0.015042278915643692, -0.8955709338188171, 1.4591586589813232, 0.49136996269226074, 0.3921284079551697, -0.7776829600334167, 0.0054714977741241455, 0.09252122044563293, -0.22480416297912598, -0.3317908622242053, 0.032761947792102786, 0.6576322499666376,0.6755450331525843,0.47833251953125,0.4830322265625,-0.9960784912109375
20230215-1526,2023-02-15 15:27:02Z,u01, 128,100,movements,el-ex, lt, nd,280944.608714125, 0.5588289593215245, -0.39509363479095316, 1.7289403579256726, 0.02828223444521427, -1.0173847675323486, 1.4320908784866333, 0.48934781551361084, 0.38489460945129395, -0.7825565934181213, 0.03216707706451416, 0.06429356336593628, -0.2125452756881714, -0.32817308117471805, 0.03200222775167045, 0.6529158965392227,0.6818936428043928,0.51226806640625,0.4739990234375,-0.997802734375
20230215-1526,2023-02-15 15:27:02Z,u01, 129,100,movements,el-ex, lt, nd,280944.618736125, 0.5527800724378217, -0.3874525795938483, 1.7417100787654494, 0.0039457352831959724, -1.1207218170166016, 1.3803532123565674, 0.486135333776474, 0.37783104181289673, -0.7879822850227356, 0.02742975950241089, 0.002311110496520996, -0.18763411045074463, -0.32412679821109924, 0.030832889516597337, 0.6483143992516012,0.6882437832023158,0.523345947265625,0.4159698486328125,-0.9894866943359375
20230215-1526,2023-02-15 15:27:03Z,u01, 130,100,movements,el-ex, lt, nd,280944.628759125, 0.5457623647879292, -0.3807054114960835, 1.7542796749748755, -0.08213362842798233, -1.1884204149246216, 1.3172987699508667, 0.48190587759017944, 0.3715754747390747, -0.7935353517532349, -0.008196771144866943, -0.05736654996871948, -0.13783055543899536, -0.31997750688032567, 0.029098463242115662, 0.643783385990165,0.694485779563931,0.496917724609375,0.3437042236328125,-0.9525299072265625
20230215-1526,2023-02-15 15:27:03Z,u01, 131,100,movements,el-ex, lt, nd,280944.638781125, 0.5379263494794229, -0.37507340789401095, 1.7667783336014489, -0.1612103283405304, -1.2674622535705566, 1.2569962739944458, 0.4767376482486725, 0.36634084582328796, -0.7990716695785522, -0.046119362115859985, -0.08033016324043274, -0.08946281671524048, -0.31583062939285733, 0.026742816657996, 0.6392874721132931,0.7006048602927172,0.4496612548828125,0.2963409423828125,-0.9090728759765625
20230215-1526,2023-02-15 15:27:03Z,u01, 132,100,movements,el-ex, lt, nd,280944.648804125, 0.5288939984270355, -0.37041294232692024, 1.7789955055990914, -0.19190402328968048, -1.3903803825378418, 1.1782152652740479, 0.47035717964172363, 0.36200040578842163, -0.8048104047775269, -0.06631970405578613, -0.0946207046508789, -0.04876619577407837, -0.31149887171366397, 0.023732982622737438, 0.6348990544726546,0.7066174578176823,0.4157257080078125,0.2765350341796875,-0.8693084716796875
20230215-1526,2023-02-15 15:27:03Z,u01, 133,100,movements,el-ex, lt, nd,280944.658826125, 0.5182525595801463, -0.3661785206733287, 1.790422392624554, -0.14796851575374603, -1.5163239240646362, 1.092428207397461, 0.4625215530395508, 0.3580499291419983, -0.811094343662262, -0.0758332908153534, -0.09575140476226807, -0.023668229579925537, -0.3066653880931585, 0.020228105120610285, 0.6307775386309742,0.7125073430475432,0.393798828125,0.261383056640625,-0.8433837890625
20230215-1526,2023-02-15 15:27:03Z,u01, 134,100,movements,el-ex, lt, nd,280944.66884812503, 0.5060433854487023, -0.36194567404026706, 1.8007703021106203, -0.07689177989959717, -1.6140334606170654, 1.0117342472076416, 0.4533151090145111, 0.3540945053100586, -0.8179990649223328, -0.07651454210281372, -0.07124239206314087, -0.010736286640167236, -0.3012139321124753, 0.016451377377916337, 0.6270069028372761,0.7182351149128565,0.3811492919921875,0.2667083740234375,-0.82794189453125
20230215-1526,2023-02-15 15:27:03Z,u01, 135,100,movements,el-ex, lt, nd,280944.67887112504, 0.4925611513827381, -0.35744309137054636, 1.810160647509063, 0.010874557308852673, -1.6953696012496948, 0.9688591957092285, 0.44299522042274475, 0.34988006949424744, -0.8254326581954956, -0.08000388741493225, -0.0089988112449646, -0.03649049997329712, -0.29517002660752856, 0.012582784044966697, 0.6235314406633866,0.7238263855180681,0.3701629638671875,0.308441162109375,-0.8375244140625
20230215-1526,2023-02-15 15:27:03Z,u01, 136,100,movements,el-ex, lt, nd,280944.68889312504, 0.47736446949852185, -0.35218605647315376, 1.8182654569152108, 0.21457691490650177, -1.88932204246521, 0.8505857586860657, 0.4312398433685303, 0.34495049715042114, -0.833691418170929, -0.07923480868339539, 0.07890808582305908, -0.13849180936813354, -0.28823295500100604, 0.008721601682968053, 0.6204562077167253,0.7293009109905533,0.35595703125,0.3789215087890625,-0.911895751953125
20230215-1526,2023-02-15 15:27:03Z,u01, 137,100,movements,el-ex, lt, nd,280944.698916125, 0.45837607769874045, -0.3454871789183665, 1.823214373595226, 0.5616719722747803, -2.191214084625244, 0.5720350742340088, 0.4163457751274109, 0.33865511417388916, -0.8437824845314026, -0.069254070520401, 0.16963037848472595, -0.2629985213279724, -0.27943899032258707, 0.004754702322896903, 0.6184520554305468,0.7344441538271975,0.3497314453125,0.468597412109375,-1.03424072265625
20230215-1526,2023-02-15 15:27:03Z,u01, 138,100,movements,el-ex, lt, nd,280944.708938125, 0.43536354744218886, -0.33659428242781814, 1.8238479768349525, 0.9709256291389465, -2.3978071212768555, 0.3283054232597351, 0.39807409048080444, 0.33027440309524536, -0.8558363318443298, -0.060381799936294556, 0.25035300850868225, -0.36701828241348267, -0.26847862012208834, 0.0010353648135487162, 0.6179348883022107,0.7389685636205579,0.3426971435546875,0.546356201171875,-1.1752471923828125
20230215-1526,2023-02-15 15:27:03Z,u01, 139,100,movements,el-ex, lt, nd,280944.718961125, 0.40951023540229103, -0.32522472357727955, 1.8214100969350144, 1.2558149099349976, -2.5684430599212646, 0.19760946929454803, 0.3772881329059601, 0.3195217251777649, -0.869229257106781, -0.058913469314575195, 0.3115054666996002, -0.4226865768432617, -0.2556962946190352, -0.0021832255671727697, 0.6184627356426233,0.7430467962281606,0.3295440673828125,0.6076202392578125,-1.2574615478515625
20230215-1526,2023-02-15 15:27:03Z,u01, 140,100,movements,el-ex, lt, nd,280944.728983125, 0.38137327205093025, -0.31255031230786967, 1.8173237270136227, 1.3476413488388062, -2.763519287109375, 0.06932934373617172, 0.3541634976863861, 0.3074863851070404, -0.8831875920295715, -0.06603172421455383, 0.3443080186843872, -0.4445253610610962, -0.24161295193823787, -0.005420078903460413, 0.6195669765631528,0.7468136214672502,0.30560302734375,0.646759033203125,-1.31658935546875
20230215-1526,2023-02-15 15:27:03Z,u01, 141,100,movements,el-ex, lt, nd,280944.739005125, 0.35119684841108434, -0.3001280558747456, 1.8122887116616309, 1.2914321422576904, -2.9138073921203613, -0.06293682008981705, 0.3286435902118683, 0.29564255475997925, -0.8969887495040894, -0.11033609509468079, 0.30895641446113586, -0.43261629343032837, -0.2267567202888276, -0.009327879764111204, 0.6210330593626825,0.7502080632295404,0.2588958740234375,0.638031005859375,-1.3306732177734375
20230215-1526,2023-02-15 15:27:03Z,u01, 142,100,movements,el-ex, lt, nd,280944.749028125, 0.3200835827796683, -0.2889578632036296, 1.806962412721519, 1.1418102979660034, -2.94586181640625, -0.1488034725189209, 0.3016011118888855, 0.28495344519615173, -0.9098562002182007, -0.18085825443267822, 0.23254835605621338, -0.3930307626724243, -0.21183604065247122, -0.01404984704340758, 0.6226268820331383,0.753169118182854,0.1705169677734375,0.5620269775390625,-1.3208465576171875
20230215-1526,2023-02-15 15:27:03Z,u01, 143,100,movements,el-ex, lt, nd,280944.759050125, 0.2892649758498975, -0.2795092351918152, 1.8019489801413837, 0.9323752522468567, -2.8979976177215576, -0.19450677931308746, 0.274177610874176, 0.2758839726448059, -0.9212570786476135, -0.24628451466560364, 0.1666209101676941, -0.3542402982711792, -0.19746659204573092, -0.019452315224328748, 0.6241131539069366,0.7557189894924429,0.07373046875,0.4768524169921875,-1.284698486328125
20230215-1526,2023-02-15 15:27:03Z,u01, 144,100,movements,el-ex, lt, nd,280944.76907312503, 0.2590571395029529, -0.272292672152878, 1.7973545227217027, 0.6952387094497681, -2.8533518314361572, -0.2573450207710266, 0.24673117697238922, 0.2689403295516968, -0.9310181736946106, -0.28239092230796814, 0.12327152490615845, -0.3396727442741394, -0.18393947819641102, -0.02563570605811492, 0.625434422871235,0.757852769235923,-0.010009765625,0.4144134521484375,-1.2718658447265625
20230215-1526,2023-02-15 15:27:03Z,u01, 145,100,movements,el-ex, lt, nd,280944.77909512504, 0.22931618868263212, -0.26706431460562285, 1.7928135762842903, 0.5381532311439514, -2.81711483001709, -0.31837642192840576, 0.21925342082977295, 0.2639009654521942, -0.9392998218536377, -0.2759702801704407, 0.0944516658782959, -0.34123295545578003, -0.17115329365338047, -0.032505766347065215, 0.6266956343025144,0.7595409202993393,-0.0508575439453125,0.3749237060546875,-1.273529052734375
20230215-1526,2023-02-15 15:27:03Z,u01, 146,100,movements,el-ex, lt, nd,280944.78911812505, 0.1997613907918027, -0.26265930682223293, 1.7883138570524122, 0.5363439321517944, -2.818291187286377, -0.33418065309524536, 0.19162970781326294, 0.2596495747566223, -0.9464988708496094, -0.25533509254455566, 0.0788208544254303, -0.35724252462387085, -0.15866686957553913, -0.03969103107817699, 0.6278711810262434,0.7609383792597302,-0.0614013671875,0.34613037109375,-1.2911529541015625
20230215-1526,2023-02-15 15:27:03Z,u01, 147,100,movements,el-ex, lt, nd,280944.799140125, 0.16986991538016957, -0.2569458535138363, 1.7837044095522283, 0.7760393023490906, -2.8914811611175537, -0.3208637535572052, 0.1635041981935501, 0.2541278600692749, -0.9532499313354492, -0.21907664835453033, 0.0813823938369751, -0.3528413772583008, -0.14564151155199218, -0.04651445690046452, 0.6290096430235347,0.7622149678810028,-0.06134033203125,0.33673095703125,-1.3086090087890625
20230215-1526,2023-02-15 15:27:03Z,u01, 148,100,movements,el-ex, lt, nd,280944.809162125, 0.13895552960988014, -0.24793818220571073, 1.778867028486589, 1.1482365131378174, -3.007352352142334, -0.33339548110961914, 0.1342732459306717, 0.24540571868419647, -0.9600763916969299, -0.1799580156803131, 0.09707778692245483, -0.3145817518234253, -0.13120166932977761, -0.052420561395073034, 0.6301778527432119,0.7634880215891469,-0.050628662109375,0.337738037109375,-1.2979888916015625
20230215-1526,2023-02-15 15:27:03Z,u01, 149,100,movements,el-ex, lt, nd,280944.819185125, 0.10698337748311204, -0.23524371735491684, 1.7734043285791599, 1.4839032888412476, -3.071157217025757, -0.39170247316360474, 0.10383845120668411, 0.23307999968528748, -0.9668977856636047, -0.14950793981552124, 0.11034953594207764, -0.23943156003952026, -0.11520583277114269, -0.0572602364948638, 0.6315694273930982,0.7645710086646278,-0.042144775390625,0.3457794189453125,-1.241119384765625
20230215-1526,2023-02-15 15:27:03Z,u01, 150,100,movements,el-ex, lt, nd,280944.839230125, 0.042744999942191116, -0.20276677376151592, 1.7637769861320851, 1.7087045907974243, -3.11970853805542, -0.24825836718082428, 0.041856542229652405, 0.20138019323349, -0.9786184430122375, -0.06881874799728394, 0.017217203974723816, -0.13490694761276245, -0.08073615355420125, -0.06459455307097735, 0.6339553262102348,0.7664265451445595,-0.051910400390625,0.332672119140625,-1.174560546875
20230215-1526,2023-02-15 15:27:03Z,u01, 151,100,movements,el-ex, lt, nd,280944.829207125, 0.07480267360044486, -0.21967946843123143, 1.7679708362005138, 1.6850814819335938, -3.0790817737579346, -0.3602357804775238, 0.07293689996004105, 0.217916801571846, -0.9732381105422974, -0.12702925503253937, 0.0899902731180191, -0.17565709352493286, -0.09819841072229213, -0.06113922223508233, 0.6329819928832795,0.7654755088435016,-0.0459136962890625,0.2691802978515625,-1.12945556640625
20230215-1526,2023-02-15 15:27:03Z,u01, 152,100,movements,el-ex, lt, nd,280944.849252125, 0.010531076403158368, -0.1863522924243226, 1.7612388755995092, 1.561089038848877, -3.1829962730407715, -0.1581358015537262, 0.010348556563258171, 0.1852755844593048, -0.9826321005821228, 0.011074855923652649, -0.102786585688591, -0.0892673134803772, -0.06327897044840154, -0.06840846165839785, 0.6342807528343412,0.7674658485406162,-0.001922607421875,0.15386962890625,-1.0950775146484375
20230215-1526,2023-02-15 15:27:03Z,u01, 153,100,movements,el-ex, lt, nd,280944.859275125, -0.021861924096679003, -0.17185424219353954, 1.7601909043065505, 1.3347104787826538, -3.210090160369873, -0.05421419441699982, -0.02153816819190979, 0.17100957036018372, -0.9850339293479919, 0.056541912257671356, -0.2115064114332199, -0.027447760105133057, -0.04627730396370664, -0.07308522332056779, 0.6339659619493736,0.7685075989788365,0.0341949462890625,0.0149078369140625,-1.04510498046875
20230215-1526,2023-02-15 15:27:03Z,u01, 154,100,movements,el-ex, lt, nd,280944.869297125, -0.053837925182595725, -0.15946198687310278, 1.7607219942606118, 1.1608107089996338, -3.145237684249878, 0.05943990498781204, -0.053129199892282486, 0.15878704190254211, -0.9858823418617249, 0.06695374846458435, -0.277424156665802, 0.046490252017974854, -0.03002109096422527, -0.07847019477095403, 0.6329667700155137,0.7696064520855587,0.0280609130859375,-0.0859832763671875,-0.9779510498046875
20230215-1526,2023-02-15 15:27:03Z,u01, 155,100,movements,el-ex, lt, nd,280944.87931912503, -0.08479360609820653, -0.14849112398790876, 1.7626076446397436, 1.0533109903335571, -3.0538814067840576, 0.16367016732692719, -0.08376003056764603, 0.14794602990150452, -0.9854421615600586, 0.06221470236778259, -0.2997099757194519, 0.1149282455444336, -0.01453304044503151, -0.08406971678182609, 0.6313972154513489,0.7707518972832903,-0.002471923828125,-0.1414337158203125,-0.901092529296875
20230215-1526,2023-02-15 15:27:03Z,u01, 156,100,movements,el-ex, lt, nd,280944.88934212504, -0.11452178622979248, -0.138513660551679, 1.7656789736631724, 0.9933724999427795, -2.9309260845184326, 0.24460014700889587, -0.11317716538906097, 0.13807116448879242, -0.9839345812797546, 0.05922216922044754, -0.2887212038040161, 0.14917200803756714, 0.00023830102823237353, -0.08962504081036385, 0.6293400288432021,0.7719444669136697,-0.0390167236328125,-0.1528778076171875,-0.8510284423828125
20230215-1526,2023-02-15 15:27:03Z,u01, 157,100,movements,el-ex, lt, nd,280944.89936412504, -0.14276595684252252, -0.12914344901917857, 1.7699191251701538, 0.9722099900245667, -2.7947189807891846, 0.3608418107032776, -0.14109663665294647, 0.12878477573394775, -0.9815835356712341, 0.08367790281772614, -0.27342283725738525, 0.17038053274154663, 0.014318465136634971, -0.09488528494900629, 0.6268298439953786,0.7732245019369656,-0.0610504150390625,-0.1471099853515625,-0.82025146484375
20230215-1526,2023-02-15 15:27:03Z,u01, 158,100,movements,el-ex, lt, nd,280944.909387125, -0.169666475679379, -0.12017718251039401, 1.7755988397333806, 0.962632417678833, -2.690762758255005, 0.4734652638435364, -0.1676357537508011, 0.11988811194896698, -0.9785321354866028, 0.13463108241558075, -0.2643278241157532, 0.17480593919754028, 0.027842312846373313, -0.09979354021380372, 0.6237689214189445,0.7747117314008953,-0.0458526611328125,-0.144287109375,-0.805633544921875
20230215-1526,2023-02-15 15:27:03Z,u01, 159,100,movements,el-ex, lt, nd,280944.919409125, -0.19561779736150797, -0.11180494652479293, 1.7824037116260811, 0.9200226068496704, -2.6171228885650635, 0.5484619736671448, -0.19315898418426514, 0.11157216131687164, -0.9748032093048096, 0.1920909583568573, -0.23098744451999664, 0.1804763674736023, 0.040891239475451834, -0.1045289991866854, 0.6202527943827316,0.7763298750200062,-0.0172119140625,-0.13629150390625,-0.7982940673828125
20230215-1526,2023-02-15 15:27:03Z,u01, 160,100,movements,el-ex, lt, nd,280944.929432125, -0.2208734126118726, -0.10421946662289215, 1.7900537410481678, 0.8709218502044678, -2.556119441986084, 0.6294689178466797, -0.21789318323135376, 0.10403089970350266, -0.9704123735427856, 0.22604148089885712, -0.18334610760211945, 0.18073952198028564, 0.05349251116952274, -0.10923541281831249, 0.6163645273501271,0.778010860605665,0.00714111328125,-0.0998992919921875,-0.792724609375
20230215-1526,2023-02-15 15:27:03Z,u01, 161,100,movements,el-ex, lt, nd,280944.939454125, -0.2453282132271677, -0.09747148899106749, 1.7985197986480541, 0.8230757713317871, -2.457280158996582, 0.6956601738929749, -0.24172189831733704, 0.09731721878051758, -0.9654532074928284, 0.2322005182504654, -0.13351108133792877, 0.20718294382095337, 0.06559216041023558, -0.11389060874866334, 0.6121147079565965,0.7797704981346473,0.0020904541015625,-0.0588226318359375,-0.7798919677734375
20230215-1526,2023-02-15 15:27:03Z,u01, 162,100,movements,el-ex, lt, nd,280944.949476125, -0.2686505137132662, -0.09134686574094233, 1.807462695418594, 0.8045107126235962, -2.3317482471466064, 0.70822674036026, -0.2643239498138428, 0.09121987968683243, -0.9601103067398071, 0.21357330679893494, -0.08079813420772552, 0.24902015924453735, 0.07711153981457218, -0.11831594937344705, 0.6076663983929436,0.7815348066462533,-0.025909423828125,-0.012939453125,-0.73223876953125
20230215-1526,2023-02-15 15:27:03Z,u01, 163,100,movements,el-ex, lt, nd,280944.959499125, -0.29055286713886047, -0.08538546963562588, 1.816352230881807, 0.8200886249542236, -2.1613779067993164, 0.6612131595611572, -0.28543826937675476, 0.08528175204992294, -0.9545952081680298, 0.18152600526809692, -0.04658547043800354, 0.2789970636367798, 0.08804766502193812, -0.12227020373045307, 0.6032785907835336,0.7831683074028785,-0.0785369873046875,0.0283050537109375,-0.693115234375
20230215-1526,2023-02-15 15:27:03Z,u01, 164,100,movements,el-ex, lt, nd,280944.969521125, -0.31076533026861325, -0.07923933825059226, 1.8247466678131279, 0.8235475420951843, -1.9738634824752808, 0.5695013999938965, -0.30482789874076843, 0.07915644347667694, -0.9491122961044312, 0.1475251317024231, -0.043908655643463135, 0.28163182735443115, 0.09836741558811653, -0.12556947035703775, 0.5991757231516919,0.7845664084267362,-0.1305084228515625,0.0379180908203125,-0.6656494140625
20230215-1526,2023-02-15 15:27:03Z,u01, 165,100,movements,el-ex, lt, nd,280944.97954412503, -0.32914025976795425, -0.0732990986618371, 1.8320045749756748, 0.7439456582069397, -1.7732596397399902, 0.4307914674282074, -0.32236161828041077, 0.0732334777712822, -0.9437795281410217, 0.12613368034362793, -0.03877913951873779, 0.26551109552383423, 0.10784404727395287, -0.12837402143290397, 0.5956028493442396,0.7855869954770511,-0.178070068359375,0.0316162109375,-0.6717376708984375
20230215-1526,2023-02-15 15:27:03Z,u01, 166,100,movements,el-ex, lt, nd,280944.98956612503, -0.3459973563005904, -0.0677408403226555, 1.8376114412425009, 0.6641232371330261, -1.6299368143081665, 0.2579563856124878, -0.33835726976394653, 0.06768904626369476, -0.9385800957679749, 0.12110275030136108, -0.022172078490257263, 0.23934602737426758, 0.11650848024198557, -0.1309035541159525, 0.5927362817970501,0.7861003160469323,-0.20819091796875,0.0404052734375,-0.6839447021484375
20230215-1526,2023-02-15 15:27:03Z,u01, 167,100,movements,el-ex, lt, nd,280944.99958912504, -0.36161732387497303, -0.062364853111490585, 1.8413549155753444, 0.5888550877571106, -1.5012712478637695, 0.08156802505254745, -0.35309964418411255, 0.06232443451881409, -0.93350750207901, 0.12290564179420471, -0.01526634395122528, 0.21121746301651, 0.12450991049467944, -0.13320481440796514, 0.590661693314946,0.7860485535828081,-0.224945068359375,0.0467681884765625,-0.712158203125
20230215-1526,2023-02-15 15:27:03Z,u01, 168,100,movements,el-ex, lt, nd,280945.00961112505, -0.3763360044103554, -0.05717383698190171, 1.8432914611368465, 0.5045177340507507, -1.422427773475647, -0.08692806214094162, -0.366914838552475, 0.05714269354939461, -0.9284977912902832, 0.12219449877738953, 0.003190547227859497, 0.1792454719543457, 0.13197659170915796, -0.13540042442854064, 0.5893375751417942,0.7854488760897251,-0.236175537109375,0.051055908203125,-0.734130859375
20230215-1526,2023-02-15 15:27:03Z,u01, 169,100,movements,el-ex, lt, nd,280945.019633125, -0.3904233771375466, -0.052040708146754634, 1.8435234822088937, 0.45115652680397034, -1.3465362787246704, -0.2419370859861374, -0.3800647258758545, 0.052017223089933395, -0.9234960675239563, 0.10960280895233154, 0.035461410880088806, 0.14490103721618652, 0.13905398458408674, -0.137535287627575, 0.5887162742741011,0.7843220193023673,-0.25579833984375,0.074859619140625,-0.7657470703125
20230215-1526,2023-02-15 15:27:03Z,u01, 170,100,movements,el-ex, lt, nd,280945.029656125, -0.40367274199689307, -0.04689512741475944, 1.8422333716417143, 0.3809354901313782, -1.2307065725326538, -0.37848320603370667, -0.3923667073249817, 0.046877939254045486, -0.9186135530471802, 0.09121936559677124, 0.05361643433570862, 0.1320381760597229, 0.14568995387294006, -0.139526581310772, 0.5887458315463919,0.7827420591638443,-0.287139892578125,0.094879150390625,-0.78765869140625
20230215-1526,2023-02-15 15:27:03Z,u01, 171,100,movements,el-ex, lt, nd,280945.039678125, -0.41574189217030477, -0.04185426580822588, 1.8397180509874036, 0.3346673250198364, -1.1038790941238403, -0.4689028263092041, -0.4035150408744812, 0.04184204712510109, -0.9140157699584961, 0.07375746965408325, 0.07188169658184052, 0.1257009506225586, 0.15173388051375475, -0.14131149798717438, 0.5893227738077105,0.7808370613994648,-0.3143463134765625,0.1074371337890625,-0.785797119140625
20230215-1526,2023-02-15 15:27:03Z,u01, 172,100,movements,el-ex, lt, nd,280945.049701125, -0.42671005923710487, -0.03652297301712158, 1.83648789471988, 0.3688898980617523, -1.0112218856811523, -0.5446465611457825, -0.4136020839214325, 0.036514852195978165, -0.9097251892089844, 0.06692251563072205, 0.08528079092502594, 0.10889816284179688, 0.15737052531324705, -0.14273021877817996, 0.5902772221097004,0.7787395292880319,-0.340484619140625,0.1195068359375,-0.794952392578125
20230215-1526,2023-02-15 15:27:03Z,u01, 173,100,movements,el-ex, lt, nd,280945.059723125, -0.4369363205688491, -0.03025011609346427, 1.832768595898837, 0.44563955068588257, -0.9505226016044617, -0.648983895778656, -0.4229719936847687, 0.030245503410696983, -0.905637800693512, 0.07041776180267334, 0.09533432126045227, 0.10571104288101196, 0.16295140995732005, -0.14362424248845637, 0.5915557645383249,0.7764538588569037,-0.3509521484375,0.12298583984375,-0.8025054931640625
20230215-1526,2023-02-15 15:27:03Z,u01, 174,100,movements,el-ex, lt, nd,280945.069746125, -0.4466157404404795, -0.022639520527681364, 1.828432127519137, 0.5462043285369873, -0.9044440388679504, -0.7746289372444153, -0.4318050146102905, 0.022637587040662766, -0.9016828536987305, 0.07807588577270508, 0.11017490923404694, 0.1121320128440857, 0.1686630317067225, -0.14391440789283974, 0.5932315910256489,0.7738977186467809,-0.3524932861328125,0.129547119140625,-0.793121337890625
20230215-1526,2023-02-15 15:27:03Z,u01, 175,100,movements,el-ex, lt, nd,280945.079768125, -0.45583621197197854, -0.013578702815351312, 1.8235399466155198, 0.638502299785614, -0.8626289367675781, -0.8824486136436462, -0.4401727020740509, 0.013578285463154316, -0.8978104591369629, 0.08474984765052795, 0.10634054243564606, 0.11092990636825562, 0.17457950261483512, -0.14358541266751096, 0.5952848617905563,0.7710649417668428,-0.3551788330078125,0.1305999755859375,-0.789520263671875
20230215-1526,2023-02-15 15:27:03Z,u01, 176,100,movements,el-ex, lt, nd,280945.089790125, -0.4647279933243985, -0.0034047603897926545, 1.8181373173417743, 0.6849388480186462, -0.8370420932769775, -0.9784519076347351, -0.4481770396232605, 0.0034047537483274937, -0.8939383029937744, 0.10154324769973755, 0.07290443778038025, 0.11961573362350464, 0.18065592537400116, -0.1428085486868937, 0.5976561920858539,0.7679687970432056,-0.351837158203125,0.101318359375,-0.780181884765625
20230215-1526,2023-02-15 15:27:03Z,u01, 177,100,movements,el-ex, lt, nd,280945.09981312504, -0.4731659586791911, 0.007351303093505335, 1.8119869908795314, 0.6516849994659424, -0.7809740304946899, -1.0782464742660522, -0.45569437742233276, -0.007351236883550882, -0.8901059627532959, 0.10883167386054993, 0.021389320492744446, 0.13522309064865112, 0.18667088543105337, -0.14177801813511426, 0.6003937853685081,0.7645784763211819,-0.3450927734375,0.047149658203125,-0.766632080078125
20230215-1526,2023-02-15 15:27:03Z,u01, 178,100,movements,el-ex, lt, nd,280945.10983512504, -0.4805629278832109, 0.01792928797158289, 1.8048054616917615, 0.5501754879951477, -0.6353989839553833, -1.1534072160720825, -0.46220409870147705, -0.01792832650244236, -0.8865923285484314, 0.0988619327545166, -0.035721585154533386, 0.15252244472503662, 0.19215636231438754, -0.1406406080758606, 0.6035719942197882,0.7609184613854718,-0.354217529296875,-0.01934814453125,-0.742523193359375
20230215-1526,2023-02-15 15:27:03Z,u01, 179,100,movements,el-ex, lt, nd,280945.119858125, -0.4863912004665703, 0.028046139416740366, 1.7968389613750644, 0.4932871460914612, -0.4842611253261566, -1.182072639465332, -0.4672548174858093, -0.028042463585734367, -0.8836778402328491, 0.08346587419509888, -0.09225782752037048, 0.15952616930007935, 0.19685099109721943, -0.139322563742574, 0.6071011360941994,0.7571438976833443,-0.3735809326171875,-0.0864715576171875,-0.72650146484375
20230215-1526,2023-02-15 15:27:03Z,u01, 180,100,movements,el-ex, lt, nd,280945.129880125, -0.49070422885480575, 0.03796706269441885, 1.7885292680421216, 0.4524867832660675, -0.35313186049461365, -1.1988790035247803, -0.4709075093269348, -0.03795794025063515, -0.8813655972480774, 0.06975406408309937, -0.14252302050590515, 0.15814471244812012, 0.20089406174565647, -0.13769090694045338, 0.6108278613384854,0.753373781227602,-0.3931121826171875,-0.1532440185546875,-0.7245941162109375
20230215-1526,2023-02-15 15:27:03Z,u01, 181,100,movements,el-ex, lt, nd,280945.139903125, -0.49385387851967727, 0.04759855252195516, 1.7798856653803818, 0.401155948638916, -0.2576783001422882, -1.2170063257217407, -0.47348591685295105, -0.04758058115839958, -0.8795152902603149, 0.06680876016616821, -0.1500665247440338, 0.15612661838531494, 0.20439825188530422, -0.13588121568396289, 0.6147106477051227,0.7495921397917563,-0.4059600830078125,-0.195220947265625,-0.7252197265625
20230215-1526,2023-02-15 15:27:03Z,u01, 182,100,movements,el-ex, lt, nd,280945.149925125, -0.4961305862821544, 0.05716142459691952, 1.7709909817438918, 0.4076625108718872, -0.18138806521892548, -1.2348164319992065, -0.4752487540245056, -0.057130299508571625, -0.87799471616745, 0.08363205194473267, -0.12924054265022278, 0.17143642902374268, 0.2075507240941926, -0.1338855256330504, 0.6187139352333989,0.745781698137514,-0.400604248046875,-0.1934661865234375,-0.71697998046875
20230215-1526,2023-02-15 15:27:03Z,u01, 183,100,movements,el-ex, lt, nd,280945.159947125, -0.49788488019728955, 0.0671523261222058, 1.7621697676674413, 0.45040491223335266, -0.15696634352207184, -1.2344435453414917, -0.47649189829826355, -0.0671018660068512, -0.8766143918037415, 0.10481840372085571, -0.1142641007900238, 0.18713068962097168, 0.21065956262531677, -0.13158780477766027, 0.6227320731780516,0.7419648994329886,-0.3807830810546875,-0.1831817626953125,-0.6937255859375
20230215-1526,2023-02-15 15:27:03Z,u01, 184,100,movements,el-ex, lt, nd,280945.169970125, -0.49974786214418543, 0.07769784697005783, 1.7536427349207324, 0.4994041621685028, -0.15005891025066376, -1.2350574731826782, -0.4777584969997406, -0.07761969417333603, -0.8750553727149963, 0.11321088671684265, -0.10319696366786957, 0.18190962076187134, 0.21401448572064533, -0.12911274534413525, 0.6266493234625125,0.7381315094432096,-0.368194580078125,-0.1814422607421875,-0.6943359375
20230215-1526,2023-02-15 15:27:03Z,u01, 185,100,movements,el-ex, lt, nd,280945.179992125, -0.5021735299342052, 0.08923366586258875, 1.7452616426445962, 0.5428123474121094, -0.1358562707901001, -1.2709176540374756, -0.47941678762435913, -0.08911529183387756, -0.8730509877204895, 0.1148233711719513, -0.08314116299152374, 0.20549416542053223, 0.21790591348217045, -0.12645761864100885, 0.6305259040638684,0.7341406468468884,-0.3627471923828125,-0.177001953125,-0.6794281005859375
20230215-1526,2023-02-15 15:27:03Z,u01, 186,100,movements,el-ex, lt, nd,280945.19001512503, -0.5042265790054439, 0.10124478527870051, 1.7367489420192845, 0.547126293182373, -0.09877068549394608, -1.3009244203567505, -0.48065635561943054, -0.10107190907001495, -0.8710648417472839, 0.10457310080528259, -0.07199326157569885, 0.20779573917388916, 0.22181507100666825, -0.1235542956529367, 0.6344771908324537,0.7300486794132444,-0.3710479736328125,-0.171539306640625,-0.664154052734375
20230215-1526,2023-02-15 15:27:03Z,u01, 187,100,movements,el-ex, lt, nd,280945.20003712503, -0.504921302724059, 0.11280635595268448, 1.7278147780511945, 0.512612521648407, -0.06822502613067627, -1.3338000774383545, -0.4806639850139618, -0.11256726086139679, -0.8696497678756714, 0.10531312227249146, -0.06531967222690582, 0.2109736204147339, 0.22508502239255787, -0.12046509078108976, 0.6385907084850763,0.7259661168333004,-0.377105712890625,-0.1756134033203125,-0.659698486328125
20230215-1526,2023-02-15 15:27:03Z,u01, 188,100,movements,el-ex, lt, nd,280945.21006012504, -0.504663494437918, 0.12385501918992037, 1.718281215091232, 0.4519888162612915, -0.021022360771894455, -1.3663897514343262, -0.47980907559394836, -0.12353860586881638, -0.8686319589614868, 0.10213887691497803, -0.05839192867279053, 0.19233185052871704, 0.22784081185694416, -0.1173567157415105, 0.642895608202258,0.7218040694651043,-0.37677001953125,-0.1786041259765625,-0.66522216796875
20230215-1526,2023-02-15 15:27:03Z,u01, 189,100,movements,el-ex, lt, nd,280945.22008212504, -0.5034499058664835, 0.1344648044988122, 1.7081753161347846, 0.3983876407146454, 0.05627056211233139, -1.3944944143295288, -0.47809529304504395, -0.13405996561050415, -0.8680166006088257, 0.09471830725669861, -0.06480781733989716, 0.1735585331916809, 0.2301125185829208, -0.11419252394303674, 0.6473827629365185,0.7175679486350868,-0.3793792724609375,-0.189056396484375,-0.686279296875
20230215-1526,2023-02-15 15:27:03Z,u01, 190,100,movements,el-ex, lt, nd,280945.230104125, -0.501288305079573, 0.14477328324770602, 1.6976291186417356, 0.3735732138156891, 0.1234583854675293, -1.410974144935608, -0.4755284786224365, -0.14426809549331665, -0.8677899241447449, 0.07477176189422607, -0.07295601069927216, 0.15317505598068237, 0.23196006824189572, -0.11090333525055204, 0.6520089175657388,0.7132877349211932,-0.3899688720703125,-0.208160400390625,-0.702117919921875
20230215-1526,2023-02-15 15:27:03Z,u01, 191,100,movements,el-ex, lt, nd,280945.240127125, -0.4982848797676333, 0.1548883693205395, 1.6868522882385826, 0.3516828417778015, 0.18390601873397827, -1.4094817638397217, -0.47219836711883545, -0.15426979959011078, -0.8678879737854004, 0.0515594482421875, -0.08736835420131683, 0.12246555089950562, 0.23347311677123486, -0.10745383578267277, 0.6566954484760846,0.7090098701901362,-0.4126434326171875,-0.229827880859375,-0.731353759765625
20230215-1526,2023-02-15 15:27:03Z,u01, 192,100,movements,el-ex, lt, nd,280945.250149125, -0.49455364218967457, 0.16473175639333945, 1.675907988291432, 0.32449275255203247, 0.2396337240934372, -1.4159711599349976, -0.46821334958076477, -0.16398772597312927, -0.8682650923728943, 0.042142271995544434, -0.08775176107883453, 0.11953151226043701, 0.2346759229934956, -0.10389736034097108, 0.6614048390052488,0.7047525412785267,-0.424652099609375,-0.2496490478515625,-0.75140380859375
20230215-1526,2023-02-15 15:27:03Z,u01, 193,100,movements,el-ex, lt, nd,280945.260172125, -0.4901725609373108, 0.17435926620537662, 1.6646810110203853, 0.2990923225879669, 0.275642067193985, -1.4277048110961914, -0.46364015340805054, -0.1734771579504013, -0.8688748478889465, 0.03842359781265259, -0.0827789455652237, 0.12477993965148926, 0.23561191327100472, -0.10024773639576325, 0.6661738777353563,0.700463943288841,-0.425506591796875,-0.2529296875,-0.7423553466796875
20230215-1526,2023-02-15 15:27:03Z,u01, 194,100,movements,el-ex, lt, nd,280945.270194125, -0.4853960803975728, 0.1837767864628513, 1.6532403374445206, 0.2874060273170471, 0.2834049165248871, -1.429979920387268, -0.45870211720466614, -0.18274405598640442, -0.8695958256721497, 0.0393601655960083, -0.0949506163597107, 0.11626940965652466, 0.23637944412796152, -0.09657551825997182, 0.6709628181984743,0.6961369875633369,-0.425201416015625,-0.26507568359375,-0.75164794921875
20230215-1526,2023-02-15 15:27:03Z,u01, 195,100,movements,el-ex, lt, nd,280945.280217125, -0.4805841596829974, 0.1932476322132588, 1.6416501640923347, 0.3014746904373169, 0.2563732862472534, -1.4530532360076904, -0.45369189977645874, -0.1920470893383026, -0.8702192902565002, 0.04570251703262329, -0.1186370849609375, 0.11822032928466797, 0.23719309986273016, -0.0928967166815344, 0.675745385756825,0.6917209139437949,-0.41290283203125,-0.2926177978515625,-0.750885009765625
20230215-1526,2023-02-15 15:27:03Z,u01, 196,100,movements,el-ex, lt, nd,280945.290239125, -0.47594606472547796, 0.20267601055143838, 1.6297361768768563, 0.26175621151924133, 0.22173063457012177, -1.475197672843933, -0.44880127906799316, -0.2012912780046463, -0.870665967464447, 0.042124152183532715, -0.1415736973285675, 0.11190736293792725, 0.2380874643670577, -0.08933859172903336, 0.6805648365591558,0.6871421708208559,-0.4058837890625,-0.330078125,-0.7554473876953125
20230215-1526,2023-02-15 15:27:03Z,u01, 197,100,movements,el-ex, lt, nd,280945.300261125, -0.47137758456317697, 0.21131025225944944, 1.6171611145451246, 0.127030611038208, 0.19475147128105164, -1.4878226518630981, -0.44401317834854126, -0.20974119007587433, -0.8711262345314026, 0.03063744306564331, -0.13915099203586578, 0.11628913879394531, 0.23876844475864162, -0.08617720946380801, 0.6855033288500292,0.6823842428130579,-0.4097747802734375,-0.3496551513671875,-0.7581787109375
20230215-1526,2023-02-15 15:27:03Z,u01, 198,100,movements,el-ex, lt, nd,280945.31028412504, -0.46642552046220576, 0.2187967886780654, 1.603857355218525, 0.018507614731788635, 0.25462228059768677, -1.4834345579147339, -0.43897542357444763, -0.21705526113510132, -0.8718873858451843, 0.009364306926727295, -0.1241770088672638, 0.13827526569366455, 0.23896188464517096, -0.08338786523850937, 0.6905888377647864,0.6775180388326726,-0.4203033447265625,-0.3438568115234375,-0.7456817626953125
20230215-1526,2023-02-15 15:27:03Z,u01, 199,100,movements,el-ex, lt, nd,280945.32030612504, -0.46040817514195903, 0.22515357538740324, 1.5905734168303418, -0.06775856763124466, 0.3969692885875702, -1.3781377077102661, -0.43309926986694336, -0.22325606644153595, -0.8732593059539795, -0.028448492288589478, -0.14596080780029297, 0.13299435377120972, 0.23847281894194178, -0.08062922834357866, 0.695600952202912,0.6728811512117991,-0.441986083984375,-0.3492584228515625,-0.729156494140625
20230215-1526,2023-02-15 15:27:03Z,u01, 200,100,movements,el-ex, lt, nd,280945.330329125, -0.45247639127623934, 0.22991369227705755, 1.5779847483292617, -0.1847100555896759, 0.6338643431663513, -1.2302544116973877, -0.4256897568702698, -0.22789348661899567, -0.8757013082504272, -0.06608566641807556, -0.18545180559158325, 0.10151606798171997, 0.2368881696200944, -0.07767457102990594, 0.7003335475488316,0.6688673993966741,-0.4807891845703125,-0.3940277099609375,-0.7614898681640625
20230215-1526,2023-02-15 15:27:03Z,u01, 201,100,movements,el-ex, lt, nd,280945.340351125, -0.44233820470897733, 0.23301059117118578, 1.5661255716516282, -0.2731584310531616, 0.8488408327102661, -1.1072795391082764, -0.41648590564727783, -0.23090779781341553, -0.8793299198150635, -0.06685137748718262, -0.18327674269676208, 0.0594293475151062, 0.23408686953400012, -0.07442032722849694, 0.7047935225586646,0.6655306756308437,-0.49285888671875,-0.42034912109375,-0.791778564453125
20230215-1526,2023-02-15 15:27:03Z,u01, 202,100,movements,el-ex, lt, nd,280945.350374125, -0.4309082547604079, 0.23516830108946782, 1.555128204648484, -0.24638085067272186, 0.9209249019622803, -1.0042365789413452, -0.4061991572380066, -0.23300665616989136, -0.8835780024528503, -0.02621951699256897, -0.15004993975162506, -0.017178833484649658, 0.23061606598868611, -0.07090290658103438, 0.7089363834827807,0.6627202373258129,-0.4616546630859375,-0.4016571044921875,-0.855682373046875
20230215-1526,2023-02-15 15:27:03Z,u01, 203,100,movements,el-ex, lt, nd,280945.360396125, -0.41991730560838103, 0.23770511453682755, 1.54532356326223, -0.09251487255096436, 0.816199541091919, -0.937685489654541, -0.39622122049331665, -0.2354728877544403, -0.8874464631080627, 0.0399133563041687, -0.10145637392997742, -0.09926313161849976, 0.22749976139209022, -0.06723554875783755, 0.712640325766873,0.6602022049757116,-0.3953857421875,-0.3602142333984375,-0.9463958740234375
20230215-1526,2023-02-15 15:27:03Z,u01, 204,100,movements,el-ex, lt, nd,280945.370418125, -0.41041598765492193, 0.24155125735390373, 1.5365424855373808, 0.07345335185527802, 0.6822649240493774, -0.9213675856590271, -0.3874073326587677, -0.2392091304063797, -0.8903339505195618, 0.09176838397979736, -0.06256391108036041, -0.1502392292022705, 0.22538995278475094, -0.06350114328594672, 0.7159566924570308,0.6577027664347826,-0.3188629150390625,-0.317840576171875,-1.0194091796875
20230215-1526,2023-02-15 15:27:03Z,u01, 205,100,movements,el-ex, lt, nd,280945.380441125, -0.40206323639498165, 0.24646455960793573, 1.5284785435376713, 0.16649512946605682, 0.6212249994277954, -0.8866215944290161, -0.3794926702976227, -0.243976891040802, -0.8924463987350464, 0.09235289692878723, -0.033626213669776917, -0.1520482301712036, 0.224078933835545, -0.059711225848231304, 0.7189908480572831,0.655191014266035,-0.2846832275390625,-0.2874755859375,-1.0474853515625
20230215-1526,2023-02-15 15:27:03Z,u01, 206,100,movements,el-ex, lt, nd,280945.390463125, -0.3939739770040661, 0.25156686774275994, 1.5210644891182603, 0.17567852139472961, 0.6459066271781921, -0.8159916400909424, -0.3717783987522125, -0.24892181158065796, -0.894325852394104, 0.04575920104980469, -0.026667118072509766, -0.12618201971054077, 0.22297073378375173, -0.05586704295249804, 0.7217700777303148,0.652848184719968,-0.30322265625,-0.2715301513671875,-1.03448486328125
20230215-1526,2023-02-15 15:27:03Z,u01, 207,100,movements,el-ex, lt, nd,280945.400486125, -0.3854674005230216, 0.25611467896093537, 1.5142287050441325, 0.1207372397184372, 0.7221692204475403, -0.7378070950508118, -0.36372798681259155, -0.25332388281822205, -0.8963977694511414, -0.011302441358566284, -0.051027894020080566, -0.09377562999725342, 0.22158143463484134, -0.05198833400949417, 0.7243229802112897,0.6508110507702036,-0.35113525390625,-0.287872314453125,-1.00469970703125
20230215-1526,2023-02-15 15:27:03Z,u01, 208,100,movements,el-ex, lt, nd,280945.41050812503, -0.37612590671659746, 0.2597867420114292, 1.5078013462882487, 0.06257273256778717, 0.82157301902771, -0.6787807941436768, -0.35499444603919983, -0.2568744421005249, -0.8988851308822632, -0.04527401924133301, -0.07784229516983032, -0.06888836622238159, 0.21965569990463762, -0.04805019682293071, 0.7267128271946597,0.6491000852627855,-0.3918304443359375,-0.321014404296875,-0.9768524169921875
20230215-1526,2023-02-15 15:27:03Z,u01, 209,100,movements,el-ex, lt, nd,280945.42053112504, -0.36614120250956306, 0.2627698048715147, 1.501448260145929, 0.012005963362753391, 0.8426700234413147, -0.6700807809829712, -0.3457259237766266, -0.25975626707077026, -0.9016652703285217, -0.04746243357658386, -0.08672499656677246, -0.07668256759643555, 0.21730935022457493, -0.044091012126650855, 0.7290492843490344,0.6475489648707077,-0.4002838134765625,-0.342254638671875,-0.9672393798828125
20230215-1526,2023-02-15 15:27:03Z,u01, 210,100,movements,el-ex, lt, nd,280945.43055312504, -0.3562780376903069, 0.26538408195315943, 1.4948878344604144, -0.010761362500488758, 0.7931315302848816, -0.6823459267616272, -0.33657798171043396, -0.2622799277305603, -0.9043917655944824, -0.013153374195098877, -0.08969449996948242, -0.11983919143676758, 0.21489386582373168, -0.040308007091861546, 0.7314134278300882,0.6459336291431744,-0.3756561279296875,-0.3467254638671875,-0.9995269775390625
20230215-1526,2023-02-15 15:27:03Z,u01, 211,100,movements,el-ex, lt, nd,280945.44057512505, -0.3470747452648214, 0.26787929236349195, 1.4881719288088127, -0.012932904995977879, 0.7001166343688965, -0.6879974007606506, -0.32801684737205505, -0.2646869719028473, -0.9068328142166138, 0.04557675123214722, -0.08692127466201782, -0.1479615569114685, 0.2126706715640222, -0.036807298024449736, 0.7337837731807778,0.6441876485549791,-0.316925048828125,-0.354461669921875,-1.044097900390625
20230215-1526,2023-02-15 15:27:03Z,u01, 212,100,movements,el-ex, lt, nd,280945.45059825, -0.3388083334149094, 0.270489575499205, 1.4815166528998711, 0.01888509839773178, 0.6141753196716309, -0.6694507598876953, -0.32027873396873474, -0.2672032415866852, -0.908858597278595, 0.08799430727958679, -0.07628729939460754, -0.14875859022140503, 0.21081359210609552, -0.03359064725745162, 0.7360918567733503,0.6423379287706195,-0.2528228759765625,-0.3485870361328125,-1.0580291748046875
20230215-1526,2023-02-15 15:27:03Z,u01, 213,100,movements,el-ex, lt, nd,280945.46062025, -0.3313203374682972, 0.2733948704878367, 1.4753869864699616, 0.07500775903463364, 0.5811476111412048, -0.60693359375, -0.31321045756340027, -0.27000176906585693, -0.9104934334754944, 0.09691721200942993, -0.06578308343887329, -0.1264328956604004, 0.20934037040653522, -0.030494297846632074, 0.7381959964916149,0.6405570666612955,-0.2211761474609375,-0.337310791015625,-1.049774169921875
20230215-1526,2023-02-15 15:27:03Z,u01, 214,100,movements,el-ex, lt, nd,280945.47064325004, -0.3238396478000985, 0.2766011945724738, 1.4702238459530117, 0.13436977565288544, 0.6484302282333374, -0.5111783742904663, -0.3061135709285736, -0.27308762073516846, -0.9119855165481567, 0.09146827459335327, -0.07252389192581177, -0.08697688579559326, 0.20800949303726157, -0.027189733675324096, 0.7399688905346344,0.6390921253704748,-0.2147369384765625,-0.339080810546875,-1.019439697265625
20230215-1526,2023-02-15 15:27:03Z,u01, 215,100,movements,el-ex, lt, nd,280945.48066525004, -0.31583040710755983, 0.2798668563781721, 1.4661843141978388, 0.15759360790252686, 0.733483076095581, -0.40811270475387573, -0.29852092266082764, -0.2762276828289032, -0.9135554432868958, 0.08259391784667969, -0.07074186205863953, -0.07799124717712402, 0.20656201896319354, -0.023546063637467172, 0.741366889177217,0.6380853205725063,-0.21539306640625,-0.3488311767578125,-0.9891204833984375
20230215-1526,2023-02-15 15:27:03Z,u01, 216,100,movements,el-ex, lt, nd,280945.49068825, -0.30740527200336226, 0.2832440872551623, 1.4630999479289508, 0.2229062169790268, 0.7733189463615417, -0.3354301452636719, -0.29052966833114624, -0.2794719338417053, -0.9151436686515808, 0.09654480218887329, -0.042671531438827515, -0.09628516435623169, 0.20504572184812953, -0.01960648123376963, 0.7424407052796769,0.6374587002830854,-0.2093963623046875,-0.33612060546875,-1.0004425048828125
20230215-1526,2023-02-15 15:27:03Z,u01, 217,100,movements,el-ex, lt, nd,280945.50071025, -0.2991775505759702, 0.2873373658524916, 1.4610240082288277, 0.34378284215927124, 0.7457970380783081, -0.25834840536117554, -0.28265082836151123, -0.283399760723114, -0.9164022207260132, 0.1388673484325409, -0.02232527732849121, -0.13874304294586182, 0.20386743462905446, -0.01539316328626231, 0.7431643161768884,0.6371089333508131,-0.168853759765625,-0.3102874755859375,-1.029815673828125
20230215-1526,2023-02-15 15:27:03Z,u01, 218,100,movements,el-ex, lt, nd,280945.51073225, -0.2917953215790453, 0.29252823846701226, 1.4600839067037423, 0.4689488708972931, 0.6553837656974792, -0.1789160966873169, -0.2754511833190918, -0.2883739769458771, -0.9170425534248352, 0.17933616042137146, -0.020280778408050537, -0.1680099368095398, 0.20336545355828148, -0.011009515154853114, 0.743488384656611,0.6369820684813169,-0.12042236328125,-0.307037353515625,-1.0757293701171875
20230215-1526,2023-02-15 15:27:03Z,u01, 219,100,movements,el-ex, lt, nd,280945.52075525, -0.28570457144562633, 0.29875438824399647, 1.4600508656968239, 0.5499366521835327, 0.5408608913421631, -0.13441814482212067, -0.2693493962287903, -0.29433000087738037, -0.916962742805481, 0.20687997341156006, -0.0057340264320373535, -0.14399611949920654, 0.20365205580893103, -0.00666742992083359, 0.7434831149713071,0.6369568482020215,-0.076171875,-0.3065185546875,-1.0792388916015625
20230215-1526,2023-02-15 15:27:03Z,u01, 220,100,movements,el-ex, lt, nd,280945.53077725, -0.2806564787704957, 0.30571528801916764, 1.46042664605636, 0.5998484492301941, 0.4569724500179291, -0.11546677350997925, -0.264143168926239, -0.30097538232803345, -0.9163199067115784, 0.20120075345039368, 0.020320504903793335, -0.07540982961654663, 0.20453399538933215, -0.0024257353116857753, 0.7433123616109187,0.6369039198965152,-0.057708740234375,-0.2895355224609375,-1.0289154052734375
20230215-1526,2023-02-15 15:27:03Z,u01, 221,100,movements,el-ex, lt, nd,280945.54080025, -0.2762447889680065, 0.3129325320920137, 1.4611447363215349, 0.6516876816749573, 0.4287565052509308, -0.09065835922956467, -0.25949886441230774, -0.30785006284713745, -0.9153625965118408, 0.1676868200302124, 0.03635048866271973, -0.004223644733428955, 0.20570808422273945, 0.001700453071931873, 0.7430045264794766,0.6368873385317022,-0.076171875,-0.274627685546875,-0.9559173583984375
20230215-1526,2023-02-15 15:27:03Z,u01, 222,100,movements,el-ex, lt, nd,280945.55082225, -0.2720592296719227, 0.3202978387158079, 1.4620559413004475, 0.6698845028877258, 0.4236304759979248, -0.09475802630186081, -0.25504907965660095, -0.31484925746917725, -0.9142318367958069, 0.12895053625106812, 0.038619428873062134, 0.048585474491119385, 0.2070031007091493, 0.005812615890939265, 0.742609920651073,0.6369037170369554,-0.108673095703125,-0.2735595703125,-0.8886871337890625
20230215-1526,2023-02-15 15:27:03Z,u01, 223,100,movements,el-ex, lt, nd,280945.56084525003, -0.2677837260396541, 0.32719962879161935, 1.4628181117945884, 0.6111807227134705, 0.4526765048503876, -0.09847207367420197, -0.250557005405426, -0.3213925063610077, -0.9131966233253479, 0.08914962410926819, 0.05225801467895508, 0.055973052978515625, 0.20810067300669519, 0.009788164505572853, 0.7422463077054928,0.636921211556521,-0.14404296875,-0.2739715576171875,-0.8556976318359375
20230215-1526,2023-02-15 15:27:03Z,u01, 224,100,movements,el-ex, lt, nd,280945.57086725003, -0.26310816789253516, 0.3332380897889923, 1.4634438869759643, 0.530551552772522, 0.5042302012443542, -0.0843518003821373, -0.24577534198760986, -0.32710468769073486, -0.9124675393104553, 0.07516692578792572, 0.06886497139930725, 0.04552412033081055, 0.20876069374245076, 0.013609087596807476, 0.7419169752014264,0.6370188028913908,-0.170135498046875,-0.2651519775390625,-0.8606414794921875
20230215-1526,2023-02-15 15:27:03Z,u01, 225,100,movements,el-ex, lt, nd,280945.58088925004, -0.25780297192051693, 0.3385134204216641, 1.4641121797715742, 0.48205482959747314, 0.5765014886856079, -0.04191140457987785, -0.24048779904842377, -0.3320852518081665, -0.9120773077011108, 0.07389241456985474, 0.07804170250892639, 0.015531837940216064, 0.2089453619995229, 0.01741218402841477, 0.7415633980979364,0.6372772931775772,-0.1688995361328125,-0.252777099609375,-0.8755340576171875
20230215-1526,2023-02-15 15:27:03Z,u01, 226,100,movements,el-ex, lt, nd,280945.59091225005, -0.25211512894093835, 0.3433046056727795, 1.4653044213502757, 0.4694634974002838, 0.6179966926574707, 0.030281273648142815, -0.23489658534526825, -0.3366006910800934, -0.9118791222572327, 0.07103252410888672, 0.08193156123161316, -0.045716702938079834, 0.20882745964050498, 0.021249033432922476, 0.7410293589214397,0.6378205620259899,-0.164764404296875,-0.2555694580078125,-0.9270782470703125
20230215-1526,2023-02-15 15:27:03Z,u01, 227,100,movements,el-ex, lt, nd,280945.60093425, -0.2463721432560053, 0.3480736017545944, 1.4670392647692934, 0.5056042075157166, 0.6249384880065918, 0.06255585700273514, -0.22926171123981476, -0.34108757972717285, -0.9116459488868713, 0.07688753306865692, 0.11122927069664001, -0.06748002767562866, 0.20867265595251888, 0.02515446631091009, 0.7403021476136404,0.6385731918059586,-0.1595001220703125,-0.2457275390625,-0.974395751953125
20230215-1526,2023-02-15 15:27:03Z,u01, 228,100,movements,el-ex, lt, nd,280945.61095725, -0.24078577123683823, 0.3532126276010089, 1.4692366169970617, 0.5560671091079712, 0.6167924404144287, 0.10777752846479416, -0.22374442219734192, -0.3459138870239258, -0.9111981391906738, 0.0708819329738617, 0.15324121713638306, -0.07555729150772095, 0.20868606315160285, 0.0291730841627627, 0.7393997742784526,0.6394427010836741,-0.1511077880859375,-0.2107696533203125,-0.982086181640625
20230215-1526,2023-02-15 15:27:03Z,u01, 229,100,movements,el-ex, lt, nd,280945.62097925, -0.23542132239377625, 0.35860861411583017, 1.4720307317451906, 0.5830665230751038, 0.6315857768058777, 0.16237232089042664, -0.21841458976268768, -0.35097169876098633, -0.9105569124221802, 0.05639684200286865, 0.1775556206703186, -0.07673251628875732, 0.20884322021771654, 0.0332572306611516, 0.7382818713219976,0.6404828567340318,-0.1572418212890625,-0.1806793212890625,-0.989532470703125
20230215-1526,2023-02-15 15:27:04Z,u01, 230,100,movements,el-ex, lt, nd,280945.63100225, -0.22996663597382835, 0.3638944325777951, 1.475445251417552, 0.5651296377182007, 0.6853118538856506, 0.2293827086687088, -0.21301870048046112, -0.3559163510799408, -0.9099156856536865, 0.030737295746803284, 0.17258203029632568, -0.05808663368225098, 0.20890970919066817, 0.03740164174420607, 0.7369445158073112,0.6417714374303316,-0.1710205078125,-0.1748199462890625,-0.9791717529296875
20230215-1526,2023-02-15 15:27:04Z,u01, 231,100,movements,el-ex, lt, nd,280945.64102425, -0.2240431803364512, 0.3687107854049225, 1.4795648510694501, 0.5229928493499756, 0.7847670316696167, 0.31316280364990234, -0.20724189281463623, -0.36041316390037537, -0.9094796180725098, -0.0015898048877716064, 0.13026490807533264, -0.04301983118057251, 0.20863102572052322, 0.041632897152046905, 0.7353622283119495,0.6434143848721898,-0.1952362060546875,-0.2020263671875,-0.959716796875
20230215-1526,2023-02-15 15:27:04Z,u01, 232,100,movements,el-ex, lt, nd,280945.65104625, -0.2173254120160708, 0.3727850818960635, 1.48447708425611, 0.4499232769012451, 0.886345624923706, 0.41364794969558716, -0.2008092999458313, -0.3642106354236603, -0.9094098210334778, -0.020183682441711426, 0.08003100752830505, -0.028013885021209717, 0.20779908713414022, 0.04598503965249049, 0.7335057946463668,0.6455030324109297,-0.2166290283203125,-0.2596893310546875,-0.9439239501953125
20230215-1526,2023-02-15 15:27:04Z,u01, 233,100,movements,el-ex, lt, nd,280945.66106925, -0.21013821877304031, 0.3759475387309921, 1.4902278583451516, 0.3829716742038727, 0.9406061768531799, 0.5039849877357483, -0.19402682781219482, -0.367154061794281, -0.9096985459327698, -0.014530211687088013, 0.0643586814403534, -0.033264100551605225, 0.20645212207583674, 0.050281603121104086, 0.7313699155596597,0.6480333791646331,-0.2195587158203125,-0.29974365234375,-0.9395751953125
20230215-1526,2023-02-15 15:27:04Z,u01, 234,100,movements,el-ex, lt, nd,280945.67109125, -0.20296767995986728, 0.3786251551055115, 1.4967130258443002, 0.37723368406295776, 0.9447692632675171, 0.5734192728996277, -0.18730002641677856, -0.36964336037635803, -0.9101002216339111, 0.023603811860084534, 0.08171004056930542, -0.03707385063171387, 0.20489623859989525, 0.054473917849668395, 0.7289849404143004,0.6508693302331251,-0.1905364990234375,-0.2975616455078125,-0.9449462890625
20230215-1526,2023-02-15 15:27:04Z,u01, 235,100,movements,el-ex, lt, nd,280945.68111425004, -0.19631680517006087, 0.3812101469595121, 1.5040031773955445, 0.3848572373390198, 0.9003682136535645, 0.6575895547866821, -0.1810559779405594, -0.37204402685165405, -0.9103856086730957, 0.061823904514312744, 0.09752321243286133, -0.0608668327331543, 0.2034280927079836, 0.058516698448375516, 0.7263276588760398,0.6539425463372642,-0.1395263671875,-0.2800445556640625,-0.9554290771484375
20230215-1526,2023-02-15 15:27:04Z,u01, 236,100,movements,el-ex, lt, nd,280945.69113625004, -0.19058772645312133, 0.3838892909051288, 1.5121802133444804, 0.4192570745944977, 0.828669011592865, 0.7334865927696228, -0.17564791440963745, -0.37452951073646545, -0.9104259610176086, 0.09227395057678223, 0.09633129835128784, -0.08026617765426636, 0.20224041417943486, 0.06233643365325198, 0.7233763597332565,0.6572210491511922,-0.1016845703125,-0.2747650146484375,-0.986785888671875
20230215-1526,2023-02-15 15:27:04Z,u01, 237,100,movements,el-ex, lt, nd,280945.70115925, -0.18586797970845212, 0.3867459557809254, 1.5210492677867589, 0.4316202700138092, 0.7639909386634827, 0.7813582420349121, -0.1711505651473999, -0.3771767020225525, -0.9101896286010742, 0.10891005396842957, 0.08590173721313477, -0.07191181182861328, 0.20139669479894046, 0.06591322933246882, 0.7201958983894865,0.6606152238477363,-0.069061279296875,-0.284820556640625,-0.9867095947265625
20230215-1526,2023-02-15 15:27:04Z,u01, 238,100,movements,el-ex, lt, nd,280945.71118125, -0.18182177347586648, 0.38952282507929736, 1.5304857902596642, 0.4184885621070862, 0.7409229278564453, 0.8405008316040039, -0.16727633774280548, -0.37974703311920166, -0.9098410606384277, 0.10045817494392395, 0.08220070600509644, -0.056070804595947266, 0.2007013536437374, 0.06927065894450539, 0.7168276232510017,0.6641374661330837,-0.061676025390625,-0.295318603515625,-0.9727020263671875
20230215-1526,2023-02-15 15:27:04Z,u01, 239,100,movements,el-ex, lt, nd,280945.72120325, -0.1780938729145392, 0.3919289504631926, 1.5405559013259786, 0.37891876697540283, 0.7491888403892517, 0.9126195311546326, -0.16372103989124298, -0.3819718062877655, -0.9095564484596252, 0.08822064101696014, 0.061735689640045166, -0.043873727321624756, 0.19993426683104595, 0.0724435270882109, 0.7132484675279996,0.6678732766518441,-0.0725555419921875,-0.3065643310546875,-0.959442138671875
20230215-1526,2023-02-15 15:27:04Z,u01, 240,100,movements,el-ex, lt, nd,280945.73122625, -0.17462624767176277, 0.3937572130933405, 1.551290510477906, 0.31893089413642883, 0.7410113215446472, 0.9800655841827393, -0.1604444533586502, -0.38366079330444336, -0.9094294309616089, 0.08743125200271606, 0.034097254276275635, -0.04383289813995361, 0.19900445704157252, 0.07538234702965674, 0.7094528407983725,0.6718565627005171,-0.074127197265625,-0.3359375,-0.953216552734375
20230215-1526,2023-02-15 15:27:04Z,u01, 241,100,movements,el-ex, lt, nd,280945.74124825, -0.1714622631003414, 0.39492843255750637, 1.5626189261984915, 0.2681422829627991, 0.7367622256278992, 1.0435346364974976, -0.15748946368694305, -0.3847421407699585, -0.9094891548156738, 0.09447073936462402, 0.020499616861343384, -0.03983640670776367, 0.19790412976632346, 0.07803443226830505, 0.7054675406029343,0.6760621487811889,-0.0699462890625,-0.3605804443359375,-0.9522247314453125
20230215-1526,2023-02-15 15:27:04Z,u01, 242,100,movements,el-ex, lt, nd,280945.75127125, -0.16849878180851935, 0.3956100663667857, 1.5745981491540706, 0.23119886219501495, 0.750372052192688, 1.1189689636230469, -0.15474951267242432, -0.38537120819091797, -0.9096931219100952, 0.09874984622001648, 0.025111258029937744, -0.042668938636779785, 0.19665600743859094, 0.08049749907508619, 0.7012602470758923,0.6805001823216312,-0.0585174560546875,-0.363037109375,-0.9485931396484375
20230215-1526,2023-02-15 15:27:04Z,u01, 243,100,movements,el-ex, lt, nd,280945.76129325, -0.16573969081930126, 0.395940179360802, 1.5873952316396411, 0.22191189229488373, 0.7554304599761963, 1.204131007194519, -0.15221799910068512, -0.3856757879257202, -0.9099911451339722, 0.10522101819515228, 0.04017111659049988, -0.04989349842071533, 0.19530295068033168, 0.0828323219290419, 0.6967652200665312,0.6852107454114986,-0.0526580810546875,-0.354522705078125,-0.9558563232421875
20230215-1526,2023-02-15 15:27:04Z,u01, 244,100,movements,el-ex, lt, nd,280945.77131625003, -0.16327888100707597, 0.39625625489970073, 1.6011075349657475, 0.2551412880420685, 0.7654750943183899, 1.2858108282089233, -0.14995840191841125, -0.3859674036502838, -0.9102426171302795, 0.11403930187225342, 0.06353399157524109, -0.04964202642440796, 0.19398707456322414, 0.08513343791900554, 0.6919343781716292,0.6901797640394551,-0.0396728515625,-0.333770751953125,-0.9623565673828125
20230215-1526,2023-02-15 15:27:04Z,u01, 245,100,movements,el-ex, lt, nd,280945.78133825003, -0.16101685688573739, 0.3969161301579635, 1.6157757214617985, 0.30731022357940674, 0.7877148985862732, 1.3725961446762085, -0.1478581577539444, -0.3865760564804077, -0.9103279113769531, 0.12052975594997406, 0.08053061366081238, -0.051906585693359375, 0.19279007409819196, 0.08756732488951857, 0.6867295993428311,0.695389303743855,-0.0299530029296875,-0.3128204345703125,-0.960235595703125
20230215-1526,2023-02-15 15:27:04Z,u01, 246,100,movements,el-ex, lt, nd,280945.79136025003, -0.15897571715826683, 0.3979747985164066, 1.6314085788549793, 0.3570813238620758, 0.7952151894569397, 1.443306803703308, -0.14593487977981567, -0.3875522017478943, -0.9102231860160828, 0.12287892401218414, 0.09610939025878906, -0.050378620624542236, 0.19173295370536733, 0.09014917401297151, 0.6811405886585562,0.700827369654421,-0.0258636474609375,-0.2999725341796875,-0.9631500244140625
20230215-1526,2023-02-15 15:27:04Z,u01, 247,100,movements,el-ex, lt, nd,280945.80138325004, -0.1572429891709172, 0.39940947314710684, 1.6477273412642106, 0.39446279406547546, 0.7830429077148438, 1.4835271835327148, -0.14427027106285095, -0.388874351978302, -0.9099246263504028, 0.12759250402450562, 0.11404836177825928, -0.03668487071990967, 0.1908470167512337, 0.09281760619948465, 0.6752642951617953,0.706385437308395,-0.01898193359375,-0.282318115234375,-0.9541778564453125
20230215-1526,2023-02-15 15:27:04Z,u01, 248,100,movements,el-ex, lt, nd,280945.81140525005, -0.15578359113066947, 0.4010700215870367, 1.664422390730863, 0.4043385982513428, 0.7824325561523438, 1.509735107421875, -0.14284178614616394, -0.390403687953949, -0.9094949960708618, 0.1238446831703186, 0.12145230174064636, -0.023915648460388184, 0.1900826479217154, 0.0955043422777783, 0.6692112344320204,0.7119717500409684,-0.0174560546875,-0.2686767578125,-0.938751220703125
20230215-1526,2023-02-15 15:27:04Z,u01, 249,100,movements,el-ex, lt, nd,280945.82142825, -0.15434418700791044, 0.40266052829811066, 1.6814700496270731, 0.38807520270347595, 0.8069498538970947, 1.547119140625, -0.1414368748664856, -0.391867458820343, -0.9090849757194519, 0.11328449845314026, 0.11099901795387268, -0.010852158069610596, 0.189254182142924, 0.09818540122955585, 0.6629873683852906,0.7176280990423014,-0.022064208984375,-0.273193359375,-0.9278564453125
