SessionID,LoggingTime,UID,RecNo,Hertz,Activity,MoveType,Wrist,Side,TimeStamp,DMRoll,DMPitch,DMYaw,DMRotX,DMRotY,DMRotZ,DMGrvX,DMGrvY,DMGrvZ,DMUAccelX,DMUAccelY,DMUAccelZ,DMQuatX,DMQuatY,DMQuatW,DMQuatZ,AccelroX,AceelroY,AceelroZ
20230118-1500,2023-01-18 15:00:19Z,u01, 1,100,movements,wr-su, rt, d,125681.47375100001, -0.002473892665296656, 0.3911867732473056, 0.0004901436901619082, 0.09143703430891037, -0.04061993956565857, -0.08370953053236008, -0.002287005539983511, -0.38128581643104553, -0.924454391002655, -0.007860089652240276, -0.009201914072036743, 0.03698796033859253, 0.19434877823015156, -0.001165731159093368, 0.9809318276441857,-2.371692252312041e-20,-0.0024566650390625,-0.392608642578125,-0.885040283203125
20230118-1500,2023-01-18 15:00:19Z,u01, 2,100,movements,wr-su, rt, d,125681.48377400001, -0.0025462097128670885, 0.3921616926656026, -0.0003867431349445866, 0.10335201770067215, -0.043484169989824295, -0.07761834561824799, -0.0023529117461293936, -0.3821868896484375, -0.9240820407867432, -0.017941277474164963, -0.009689390659332275, 0.02271491289138794, 0.19482637660940938, -0.0012863827371688444, 0.980836822387787,-0.00043770079622333684,-0.0180206298828125,-0.3893585205078125,-0.890350341796875
20230118-1500,2023-01-18 15:00:19Z,u01, 3,100,movements,wr-su, rt, d,125681.493797, -0.0028153043299175245, 0.3932308929986285, -0.0012476053099145091, 0.10615099966526031, -0.07402477413415909, -0.08286743611097336, -0.002600425388664007, -0.38317471742630005, -0.9236722588539124, -0.0005581444129347801, -0.0031015872955322266, -0.0062288641929626465, 0.19535000566972105, -0.001502391023737577, 0.9807321016913936,-0.0008867696088632846,-0.014404296875,-0.390289306640625,-0.916961669921875
20230118-1500,2023-01-18 15:00:19Z,u01, 4,100,movements,wr-su, rt, d,125681.50382000001, -0.003264117664028095, 0.39429106809892817, -0.0021965782624205205, 0.10502288490533829, -0.08750888705253601, -0.09274004399776459, -0.0030136536806821823, -0.3841537535190582, -0.92326420545578, 0.010688824579119682, 0.004759162664413452, -0.012343645095825195, 0.19586880776632243, -0.0018155661072818312, 0.9806275008384887,-0.001396685714705156,0.0056304931640625,-0.3807830810546875,-0.9360504150390625
20230118-1500,2023-01-18 15:00:19Z,u01, 5,100,movements,wr-su, rt, d,125681.51384200001, -0.0037508941996529507, 0.39532766492614574, -0.003284366304523683, 0.09903555363416672, -0.09728402644395828, -0.11367960274219513, -0.003461581189185381, -0.3851105868816376, -0.9228639006614685, 0.009809236973524094, 0.0017334818840026855, -0.014941215515136719, 0.19637557006504647, -0.002161414904771443, 0.9805243312466505,-0.00197850124906934,0.006134033203125,-0.38006591796875,-0.936187744140625
20230118-1500,2023-01-18 15:00:19Z,u01, 6,100,movements,wr-su, rt, d,125681.52386500001, -0.004273797066780173, 0.3962652860981082, -0.004660704876166291, 0.08189944177865982, -0.10754545032978058, -0.1409303843975067, -0.003942603711038828, -0.38597574830055237, -0.922500491142273, 0.007284278981387615, -0.0023299455642700195, -0.013717710971832275, 0.19683299510341704, -0.002553787268347183, 0.9804299250506746,-0.002705377171358255,0.00543212890625,-0.3860931396484375,-0.93634033203125
20230118-1500,2023-01-18 15:00:19Z,u01, 7,100,movements,wr-su, rt, d,125681.533888, -0.004531023229607262, 0.3969899890807146, -0.006343875458417135, 0.06039651110768318, -0.07077731192111969, -0.16521412134170532, -0.004178626462817192, -0.386644184589386, -0.9222195148468018, -0.001940147951245308, -0.010862588882446289, -0.003058195114135742, 0.19718554472976532, -0.0028464984944424248, 0.9803556665212564,-0.003556384445090816,0.0003662109375,-0.391265869140625,-0.9348907470703125
20230118-1500,2023-01-18 15:00:19Z,u01, 8,100,movements,wr-su, rt, d,125681.54391000001, -0.004391537674310536, 0.39745293673310456, -0.008139225405371554, 0.0337957926094532, -0.04081488400697708, -0.16363859176635742, -0.00404920382425189, -0.38707107305526733, -0.9220409989356995, -0.020929433405399323, -0.025328248739242554, 0.012037396430969238, 0.19741015107523227, -0.0029559568032356395, 0.9803065613181661,-0.004422984120361561,-0.0157318115234375,-0.40478515625,-0.9150390625
20230118-1500,2023-01-18 15:00:19Z,u01, 9,100,movements,wr-su, rt, d,125681.553933, -0.004068051410003352, 0.3976057318677517, -0.009987378525466563, -0.0012576095759868622, -0.0384523943066597, -0.17979000508785248, -0.0037506953813135624, -0.38721194863319397, -0.9219831228256226, -0.020617591217160225, -0.026163965463638306, 0.013535857200622559, 0.19748309251225082, -0.002980163888279151, 0.9802874373331857,-0.0052970082174985875,-0.0292510986328125,-0.414215087890625,-0.9080352783203125
20230118-1500,2023-01-18 15:00:19Z,u01, 10,100,movements,wr-su, rt, d,125681.56395600001, -0.00379687161471126, 0.39750524635363343, -0.012001753728714313, -0.017099156975746155, -0.06239234656095505, -0.1884748488664627, -0.0035008196718990803, -0.387119323015213, -0.9220229983329773, -0.0023127784952521324, -0.020824432373046875, 0.02209019660949707, 0.19743159478344666, -0.003045872002368808, 0.9802919176925036,-0.00625752865513644,-0.0146331787109375,-0.4120025634765625,-0.9049835205078125
20230118-1500,2023-01-18 15:00:19Z,u01, 11,100,movements,wr-su, rt, d,125681.57397900001, -0.0036927980287006007, 0.3974174633117878, -0.014046089909544304, 0.003155020996928215, -0.07089795917272568, -0.18299449980258942, -0.003404986811801791, -0.38703837990760803, -0.9220573306083679, 0.01228560321033001, -0.019333750009536743, 0.02441328763961792, 0.1973857305773085, -0.0031963816351977593, 0.9802938353771062,-0.007249256344642041,0.002960205078125,-0.4073028564453125,-0.8961334228515625
20230118-1500,2023-01-18 15:00:19Z,u01, 12,100,movements,wr-su, rt, d,125681.58400100001, -0.0036963984983864793, 0.3976244106748112, -0.0160016709967861, 0.03710446506738663, -0.07854682207107544, -0.17772862315177917, -0.003408010583370924, -0.38722917437553406, -0.921977162361145, 0.01607280597090721, -0.013878673315048218, 0.019618213176727295, 0.19748393126814534, -0.003391920611704056, 0.9802658311837027,-0.008208154294560871,0.0114898681640625,-0.4053802490234375,-0.899505615234375
20230118-1500,2023-01-18 15:00:19Z,u01, 13,100,movements,wr-su, rt, d,125681.594024, -0.0037599693667031077, 0.39818426285055336, -0.017855214954793256, 0.07032621651887894, -0.0807974562048912, -0.16104835271835327, -0.0034658059012144804, -0.38774529099464417, -0.9217600226402283, 0.013063584454357624, -0.00422254204750061, 0.015006542205810547, 0.19775480683516056, -0.0036084453772721767, 0.9802023617618518,-0.009122932603951264,0.0118560791015625,-0.3954315185546875,-0.9046173095703125
20230118-1500,2023-01-18 15:00:19Z,u01, 14,100,movements,wr-su, rt, d,125681.604047, -0.003988920219730534, 0.3988963273886543, -0.019615841926622964, 0.06690645962953568, -0.10535100102424622, -0.1677885502576828, -0.0036757413763552904, -0.3884015679359436, -0.9214829206466675, 0.012205405160784721, -0.0017504990100860596, 0.0075577497482299805, 0.19809935450501684, -0.003898019525713607, 0.9801231564067411,-0.010008455442762274,0.00750732421875,-0.3924102783203125,-0.9116363525390625
20230118-1500,2023-01-18 15:00:19Z,u01, 15,100,movements,wr-su, rt, d,125681.614069, -0.0044844908714019695, 0.39947661999905887, -0.021502123212240615, 0.04897362366318703, -0.13720160722732544, -0.17467597126960754, -0.004131389316171408, -0.38893622159957886, -0.9212554097175598, 0.020443035289645195, 0.004292607307434082, 0.00742185115814209, 0.198377250770858, -0.0043306394623693605, 0.9800546808063051,-0.010981949042543253,0.012237548828125,-0.386260986328125,-0.91522216796875
20230118-1500,2023-01-18 15:00:19Z,u01, 16,100,movements,wr-su, rt, d,125681.62409200001, -0.005150772660859187, 0.3999201041310281, -0.02335139368567241, 0.03494861721992493, -0.1364133208990097, -0.1703888177871704, -0.004744315054267645, -0.3893447518348694, -0.9210798740386963, 0.018324637785553932, -0.00932168960571289, 0.0071700215339660645, 0.19858651311834247, -0.004842981095004331, 0.9799984837524227,-0.011954269050006518,0.0161590576171875,-0.3895263671875,-0.91400146484375
20230118-1500,2023-01-18 15:00:19Z,u01, 17,100,movements,wr-su, rt, d,125681.63411500001, -0.026417462747796147, 0.4298100107308419, -0.01689769673833386, 0.0008959183469414711, -0.122813880443573, -0.1740163117647171, -0.024011867120862007, -0.4166980981826782, -0.908727765083313, 0.022791163995862007, -0.00043147802352905273, 0.00011265277862548828, 0.21311937581095322, -0.014705627614645023, 0.9768527793805114,-0.011070318625781315,0.008148193359375,-0.40911865234375,-0.9130096435546875
20230118-1500,2023-01-18 15:00:19Z,u01, 18,100,movements,wr-su, rt, d,125681.644138, -0.016643930333354505, 0.42795166713045824, -0.02303693667937452, -0.022513534873723984, -0.10898622125387192, -0.17503337562084198, -0.015142243355512619, -0.4150080680847168, -0.9096916913986206, 0.0030420254915952682, -0.010300219058990479, 0.00931638479232788, 0.2122316259073868, -0.010577314749623803, 0.9770753634912588,-0.013022148551000102,-0.00848388671875,-0.423095703125,-0.9028778076171875
20230118-1500,2023-01-18 15:00:19Z,u01, 19,100,movements,wr-su, rt, d,125681.65416, -0.007970677773012106, 0.42678153893682197, -0.028620996896818476, -0.024701472371816635, -0.1021842360496521, -0.16684430837631226, -0.007255652919411659, -0.41394317150115967, -0.9102737903594971, -0.003700156230479479, -0.01301303505897522, 0.012812912464141846, 0.21169586129537105, -0.0069250134932850255, 0.9771985851400258,-0.014829231504769844,-0.0131988525390625,-0.4279937744140625,-0.89898681640625
20230118-1500,2023-01-18 15:00:19Z,u01, 20,100,movements,wr-su, rt, d,125681.664183, -0.0026593555264778947, 0.4242753704403779, -0.03277173976385358, -0.015629682689905167, -0.10094187408685684, -0.17026327550411224, -0.002423566998913884, -0.4116605222225189, -0.9113340377807617, -0.0006892243400216103, -0.003836393356323242, 0.016131460666656494, 0.21050039295789671, -0.004749585335141992, 0.9774463769869449,-0.016297743910748837,-0.0065460205078125,-0.423065185546875,-0.897247314453125
20230118-1500,2023-01-18 15:00:19Z,u01, 21,100,movements,wr-su, rt, d,125681.67420600001, -0.00016309790455620412, 0.42068574320158236, -0.035753727792849445, -0.009096871130168438, -0.09197074919939041, -0.17143629491329193, -0.00014887725410517305, -0.4083864986896515, -0.9128090739250183, 0.0017510512843728065, 0.002823084592819214, 0.019284963607788086, 0.20876043418515272, -0.0038121436646822073, 0.9778028253311921,-0.017498939557076692,-0.0003814697265625,-0.4101104736328125,-0.8947296142578125
20230118-1500,2023-01-18 15:00:19Z,u01, 22,100,movements,wr-su, rt, d,125681.68422800001, 0.001358700419590985, 0.4174611475782685, -0.038388045146971986, -0.025762934237718582, -0.08381269127130508, -0.19608810544013977, 0.001242016558535397, -0.40544095635414124, -0.9141203761100769, -0.0026916000060737133, 0.00086936354637146, 0.02053523063659668, 0.20719272249959503, -0.003312622750196836, 0.9781170729082385,-0.0186355055922774,-0.00042724609375,-0.4049530029296875,-0.89398193359375
20230118-1500,2023-01-18 15:00:19Z,u01, 23,100,movements,wr-su, rt, d,125681.69425100001, 0.003847683260086708, 0.4141786955485372, -0.04177048235221151, -0.05134841799736023, -0.0831969678401947, -0.25341519713401794, 0.0035223420709371567, -0.4024381935596466, -0.9154403805732727, -0.0019506844691932201, -0.001721411943435669, 0.02266395092010498, 0.2056063950795046, -0.0024116177024611813, 0.9784266145316827,-0.02004199316644851,0.0009613037109375,-0.4063720703125,-0.89404296875
20230118-1500,2023-01-18 15:00:19Z,u01, 24,100,movements,wr-su, rt, d,125681.704274, 0.00558019721590483, 0.4132575910171313, -0.0453354159723501, -0.07036871463060379, -0.07095415145158768, -0.30791306495666504, 0.005110415630042553, -0.4015948176383972, -0.9158031940460205, 0.0025647571310400963, -0.0003064870834350586, 0.020402252674102783, 0.20516994984251397, -0.0019200824876067254, 0.9784859375189087,-0.021611261783250853,0.0035858154296875,-0.402587890625,-0.893341064453125
20230118-1500,2023-01-18 15:00:19Z,u01, 25,100,movements,wr-su, rt, d,125681.71429700001, 0.005809521863444193, 0.41410160377611, -0.04896050341961078, -0.12897564470767975, -0.07840833812952042, -0.4113261103630066, 0.0053184605203568935, -0.40236762166023254, -0.9154627323150635, 0.007315818220376968, -0.0017004013061523438, 0.017025291919708252, 0.20558170154573643, -0.0021901295709658114, 0.978358759396264,-0.023357928827294223,0.0121917724609375,-0.4017333984375,-0.8982696533203125
20230118-1500,2023-01-18 15:00:19Z,u01, 26,100,movements,wr-su, rt, d,125681.724319, 0.00526003635419233, 0.41480214119084224, -0.053523722858611705, -0.2238347828388214, -0.13083238899707794, -0.5281699299812317, 0.004813942592591047, -0.4030088484287262, -0.915183424949646, 0.015068262815475464, -0.003912568092346191, 0.022956252098083496, 0.2059117849556696, -0.002937324321170371, 0.9782300967780393,-0.02564374972144935,0.0131378173828125,-0.4071197509765625,-0.8953399658203125
20230118-1500,2023-01-18 15:00:19Z,u01, 27,100,movements,wr-su, rt, d,125681.73434200001, 0.0046688515880174185, 0.41479931693652117, -0.05846138141243206, -0.22526460886001587, -0.16401271522045135, -0.4515759348869324, 0.004272904247045517, -0.40300628542900085, -0.9151872396469116, 0.03713945299386978, -0.004891723394393921, 0.022914350032806396, 0.20589423969641021, -0.0037347738291006838, 0.9781629481437922,-0.028119628701796795,0.0313720703125,-0.4040069580078125,-0.891326904296875
20230118-1500,2023-01-18 15:00:19Z,u01, 28,100,movements,wr-su, rt, d,125681.744365, 0.004693964921470163, 0.41347161199433136, -0.06197948952301004, -0.0603848397731781, -0.08642791211605072, -0.19207406044006348, 0.004298395477235317, -0.4017907977104187, -0.9157214164733887, 0.03372650966048241, -0.023792117834091187, 0.03158140182495117, 0.20523836851257168, -0.004064214331140464, 0.9782484391860382,-0.029843392308920347,0.04632568359375,-0.4156036376953125,-0.888427734375
20230118-1500,2023-01-18 15:00:19Z,u01, 29,100,movements,wr-su, rt, d,125681.75438700001, 0.005179700170534499, 0.41283314664628695, -0.06315709780960523, -0.0928146168589592, 0.1133139580488205, -0.013280345126986504, 0.004744520876556635, -0.4012060761451721, -0.9159755110740662, -0.0231313593685627, -0.045739173889160156, 0.05296897888183594, 0.2049310307387737, -0.00393744309540305, 0.978297141702499,-0.030372412830516057,0.0139923095703125,-0.4413604736328125,-0.8813934326171875
20230118-1500,2023-01-18 15:00:19Z,u01, 30,100,movements,wr-su, rt, d,125681.76441, 0.006004345029774998, 0.4115603354707588, -0.06206048138441656, -0.16451916098594666, 0.11175814270973206, 0.22249996662139893, 0.005502935498952866, -0.4000398516654968, -0.9164811968803406, -0.03281616419553757, -0.04710376262664795, 0.09000420570373535, 0.2043228342595298, -0.0034019797067020873, 0.9784451932493538,-0.02975741054005105,-0.0378570556640625,-0.440521240234375,-0.840301513671875
20230118-1500,2023-01-18 15:00:19Z,u01, 31,100,movements,wr-su, rt, d,125681.77443300001, 0.0055086673351771595, 0.410093957713327, -0.06094831751509448, -0.13309553265571594, -0.08744843304157257, -0.07338821142911911, 0.005051881540566683, -0.3986954987049103, -0.9170694351196289, 0.0720507800579071, -0.11175686120986938, 0.07188516855239868, 0.20359999493574907, -0.0035085757253889354, 0.9786102930623588,-0.029270477983129265,0.0234222412109375,-0.4985809326171875,-0.8187103271484375
20230118-1500,2023-01-18 15:00:19Z,u01, 32,100,movements,wr-su, rt, d,125681.78445600001, 0.004964275137013859, 0.40843027616438443, -0.06152241074315618, -0.21392886340618134, -0.04636038467288017, 0.13107572495937347, 0.0045559220016002655, -0.39716920256614685, -0.9177340865135193, 0.07315709441900253, -0.002183854579925537, 0.04831886291503906, 0.2027768430019757, -0.0038079197562059857, 0.9787697390909804,-0.029614020743190413,0.113372802734375,-0.46734619140625,-0.864105224609375
20230118-1500,2023-01-18 15:00:19Z,u01, 33,100,movements,wr-su, rt, d,125681.79447800001, 0.0025223570091729313, 0.40667134594993104, -0.05906755712274409, -0.1624399721622467, -0.19904686510562897, 0.2126310020685196, 0.0023166376631706953, -0.3955543339252472, -0.9184396862983704, 0.06712611019611359, -0.017180681228637695, 0.09567052125930786, 0.2018856439384054, -0.004728444821849671, 0.9789781070816146,-0.02866653942363489,0.0271759033203125,-0.364593505859375,-0.8467864990234375
20230118-1500,2023-01-18 15:00:19Z,u01, 34,100,movements,wr-su, rt, d,125681.804501, -0.0002299829904670563, 0.40407093999443044, -0.05714110399404034, -0.35248157382011414, -0.17394497990608215, 0.16883717477321625, -0.00021146201470401138, -0.3931646943092346, -0.9194680452346802, 0.12405179440975189, -0.13889408111572266, 0.06805813312530518, 0.20057870451526835, -0.005844902831643048, 0.9792596726061774,-0.028008689358174337,0.1399383544921875,-0.5011138916015625,-0.8361358642578125
20230118-1500,2023-01-18 15:00:19Z,u01, 35,100,movements,wr-su, rt, d,125681.814524, -0.0026726897597396672, 0.40020496624853585, -0.05442775284466475, -0.4074428379535675, -0.0886756181716919, 0.32087811827659607, -0.0024614939466118813, -0.38960713148117065, -0.9209778308868408, 0.052510324865579605, -0.1290086805820465, 0.1314881443977356, 0.1986603679049557, -0.006717818916365136, 0.9796751654319591,-0.026933068929500502,0.0657958984375,-0.510162353515625,-0.8191986083984375
20230118-1500,2023-01-18 15:00:19Z,u01, 36,100,movements,wr-su, rt, d,125681.824546, -0.0046088432798459585, 0.3961251468887333, -0.05015955912192152, -0.3904407024383545, 0.03230273351073265, 0.454033225774765, -0.004251933190971613, -0.38584646582603455, -0.9225532412528992, 0.06562278419733047, -0.20244094729423523, 0.13446730375289917, 0.1966510853633988, -0.007193077988892921, 0.9801273662045005,-0.02504011567926599,0.0580596923828125,-0.565460205078125,-0.7764739990234375
20230118-1500,2023-01-18 15:00:19Z,u01, 37,100,movements,wr-su, rt, d,125681.83456900001, -0.006223037255095628, 0.3926744817674583, -0.04498944258282935, -0.2890758514404297, 0.023586474359035492, 0.4912687838077545, -0.005749358329921961, -0.38266071677207947, -0.9238710403442383, 0.04665817320346832, -0.08348006010055542, 0.10125452280044556, 0.19495932927674683, -0.007438802793921254, 0.9805210898119613,-0.02266741455282193,0.0465240478515625,-0.544097900390625,-0.8028717041015625
20230118-1500,2023-01-18 15:00:19Z,u01, 38,100,movements,wr-su, rt, d,125681.84459200001, -0.008731763654400591, 0.3904129071681776, -0.03939775486728498, -0.15132303535938263, -0.10089553892612457, 0.544550895690918, -0.00807461328804493, -0.38057029247283936, -0.9247167706489563, 0.09146390110254288, 0.01442033052444458, 0.0547369122505188, 0.19384522106779728, -0.00810280789353138, 0.980791311278769,-0.020169993865872926,0.0548858642578125,-0.3996124267578125,-0.8450469970703125
20230118-1500,2023-01-18 15:00:19Z,u01, 39,100,movements,wr-su, rt, d,125681.854615, -0.012647024171702563, 0.38946854811656817, -0.03313323561388953, -0.032599933445453644, -0.19989988207817078, 0.6072070002555847, -0.011699588969349861, -0.3796968162059784, -0.9250370264053345, 0.1482504904270172, -0.003954976797103882, -0.0013545751571655273, 0.1933726294434101, -0.00940862494634427, 0.9809246784126049,-0.017475884879077454,0.11553955078125,-0.3658599853515625,-0.8983001708984375
20230118-1500,2023-01-18 15:00:19Z,u01, 40,100,movements,wr-su, rt, d,125681.864637, -0.01754661371075865, 0.389399456589468, -0.026368849858864393, 0.03114362619817257, -0.26234275102615356, 0.636254608631134, -0.016232192516326904, -0.3796328902244568, -0.9249948263168335, 0.1540648341178894, -0.03293430805206299, -0.030739426612854004, 0.1933342026705934, -0.01115732793543557, 0.9809604115611179,-0.014631662621186531,0.1428985595703125,-0.4044952392578125,-0.9445953369140625
20230118-1500,2023-01-18 15:00:19Z,u01, 41,100,movements,wr-su, rt, d,125681.87466, -0.023014847178521695, 0.38977191559952, -0.01940113623609341, 0.06494395434856415, -0.29246950149536133, 0.6507019400596619, -0.021286755800247192, -0.37997743487358093, -0.924750804901123, 0.1322791874408722, -0.03463444113731384, -0.04818010330200195, 0.19352320014341248, -0.013167210524921215, 0.9809370760519706,-0.011744466036134165,0.126068115234375,-0.4120941162109375,-0.96881103515625
20230118-1500,2023-01-18 15:00:19Z,u01, 42,100,movements,wr-su, rt, d,125681.88468300001, -0.028668131180483156, 0.39013286364457767, -0.012186633615952501, 0.03101554699242115, -0.29383090138435364, 0.6805996298789978, -0.02651033364236355, -0.3803113102912903, -0.9244785308837891, 0.1188107505440712, -0.06707644462585449, -0.029607772827148438, 0.1937225099003267, -0.015242423426519195, 0.9808988979237193,-0.008755354045321065,0.100830078125,-0.4268341064453125,-0.9670257568359375
20230118-1500,2023-01-18 15:00:19Z,u01, 43,100,movements,wr-su, rt, d,125681.89470500001, -0.03457511086469148, 0.38985188335436044, -0.004725386637391216, -0.04601967707276344, -0.3211080729961395, 0.69792240858078, -0.03197440877556801, -0.3800514042377472, -0.9244125485420227, 0.11643180251121521, -0.12364128232002258, -0.0005446672439575195, 0.19362430410346304, -0.017416840187949853, 0.9809048858001614,-0.005665916268079679,0.0873870849609375,-0.4705810546875,-0.94281005859375
20230118-1500,2023-01-18 15:00:19Z,u01, 44,100,movements,wr-su, rt, d,125681.90472800001, -0.04127360643436718, 0.38865399551424473, 0.0032464453473998907, -0.12427639961242676, -0.4223366677761078, 0.7922347784042358, -0.038184575736522675, -0.37894314527511597, -0.9246318340301514, 0.14467567205429077, -0.2069181501865387, 0.04287225008010864, 0.19309772328673247, -0.01993352153810904, 0.98097417190394,-0.0023924764365003456,0.091827392578125,-0.5474853515625,-0.8996429443359375
20230118-1500,2023-01-18 15:00:19Z,u01, 45,100,movements,wr-su, rt, d,125681.914751, -0.049686699013937706, 0.38698464076938766, 0.012252571560681219, -0.12835858762264252, -0.5853127837181091, 0.8851685523986816, -0.04599349945783615, -0.377397745847702, -0.9249083995819092, 0.20076340436935425, -0.24456581473350525, 0.08057856559753418, 0.19237360557785615, -0.02319913919114379, 0.9810467325935384,0.0012335912452753927,0.1298828125,-0.6105194091796875,-0.864593505859375
20230118-1500,2023-01-18 15:00:19Z,u01, 46,100,movements,wr-su, rt, d,125681.92477400001, -0.0605755139794266, 0.3851625018674015, 0.022193171202982313, -0.12846244871616364, -0.8525319695472717, 0.9707974195480347, -0.05610326677560806, -0.37570974230766296, -0.9250376224517822, 0.25651219487190247, -0.2455824315547943, 0.072071373462677, 0.19162331834350216, -0.027598674038950097, 0.9810672560212794,0.005090606333525359,0.179046630859375,-0.625762939453125,-0.8412933349609375
20230118-1500,2023-01-18 15:00:19Z,u01, 47,100,movements,wr-su, rt, d,125681.934796, -0.07491488692670037, 0.38349204325358194, 0.03314250558620096, -0.06698206812143326, -1.2043484449386597, 1.074906349182129, -0.06940837949514389, -0.37416112422943115, -0.9247626066207886, 0.3048209846019745, -0.21852082014083862, 0.01022714376449585, 0.19102255116770092, -0.03360163749341206, 0.9809679723142742,0.009119660326255077,0.219329833984375,-0.60699462890625,-0.8787689208984375
20230118-1500,2023-01-18 15:00:19Z,u01, 48,100,movements,wr-su, rt, d,125681.94481900001, -0.09360883076911519, 0.38223230238034134, 0.04530595605053881, 0.010433630086481571, -1.6308573484420776, 1.1885954141616821, -0.08672669529914856, -0.372992604970932, -0.9237721562385559, 0.33660462498664856, -0.22243589162826538, -0.08642065525054932, 0.19073861864131922, -0.041625714816061046, 0.9806673422261055,0.013329075825649284,0.2462005615234375,-0.58807373046875,-0.9582977294921875
20230118-1500,2023-01-18 15:00:19Z,u01, 49,100,movements,wr-su, rt, d,125681.954842, -0.11752184492869655, 0.38136031368754075, 0.058685804143843286, 0.07235562801361084, -2.1518774032592773, 1.2937417030334473, -0.10882806777954102, -0.3721834123134613, -0.9217569828033447, 0.356630802154541, -0.25719591975212097, -0.184337317943573, 0.19080995519389982, -0.052087022399103136, 0.9800855560438476,0.01763165691181909,0.2503509521484375,-0.6091461181640625,-1.0586090087890625
20230118-1500,2023-01-18 15:00:19Z,u01, 50,100,movements,wr-su, rt, d,125681.964865, -0.1469602839555568, 0.3804146054174862, 0.07335267214924764, 0.09120707958936691, -2.625487804412842, 1.427895426750183, -0.1359635591506958, -0.3713054656982422, -0.918502151966095, 0.3552781343460083, -0.3002033829689026, -0.26678532361984253, 0.19106887953560878, -0.06512767809189739, 0.9791656912129656,0.022039140446406674,0.234619140625,-0.6521453857421875,-1.1502532958984375
20230118-1500,2023-01-18 15:00:19Z,u01, 51,100,movements,wr-su, rt, d,125681.974887, -0.18092459842509517, 0.3788080766418745, 0.08937135633869697, 0.07263363897800446, -2.9486358165740967, 1.5655637979507446, -0.1671825647354126, -0.36981332302093506, -0.913940966129303, 0.3501812219619751, -0.3144366145133972, -0.30691468715667725, 0.19127996312298534, -0.08025888900458852, 0.9778842023461068,0.026701087291221278,0.204833984375,-0.6840057373046875,-1.2122344970703125
20230118-1500,2023-01-18 15:00:19Z,u01, 52,100,movements,wr-su, rt, d,125681.98491000001, -0.21772255927252024, 0.3763207232722753, 0.10732290847803688, 0.12255246192216873, -3.0283830165863037, 1.8001593351364136, -0.20089103281497955, -0.3675011396408081, -0.908066987991333, 0.27892446517944336, -0.29677504301071167, -0.3054491877555847, 0.19140160765616837, -0.09660187821515237, 0.9762192692842308,0.032083862615804294,0.1387786865234375,-0.6767730712890625,-1.2179412841796875
20230118-1500,2023-01-18 15:00:19Z,u01, 53,100,movements,wr-su, rt, d,125681.99493300001, -0.25499460951554126, 0.3734174877100314, 0.1278021845685273, 0.18494732677936554, -2.8903424739837646, 2.0285329818725586, -0.23485733568668365, -0.36479952931404114, -0.9009791016578674, 0.19623734056949615, -0.27640533447265625, -0.2391880750656128, 0.19172189940572526, -0.11292990462133981, 0.9741627806145347,0.03868393395041093,0.0187225341796875,-0.6497955322265625,-1.1907501220703125
20230118-1500,2023-01-18 15:00:19Z,u01, 54,100,movements,wr-su, rt, d,125682.00495500001, -0.29089319663078517, 0.36915925321448734, 0.15018637657600922, 0.12344907224178314, -2.6503310203552246, 2.201453447341919, -0.2674860656261444, -0.36083143949508667, -0.8934494256973267, 0.09599253535270691, -0.2594383656978607, -0.18652182817459106, 0.1917723226667735, -0.12844711697432112, 0.9718887229044719,0.046444259620365115,-0.10308837890625,-0.6342926025390625,-1.100677490234375
20230118-1500,2023-01-18 15:00:19Z,u01, 55,100,movements,wr-su, rt, d,125682.014978, -0.32505589340832014, 0.36309516016753035, 0.1741809183547548, 0.0759565457701683, -2.4688632488250732, 2.4304091930389404, -0.29853999614715576, -0.35516929626464844, -0.885849118232727, 0.0033129453659057617, -0.25147444009780884, -0.18138110637664795, 0.19134051994568002, -0.14305331462596507, 0.9694660592175887,0.05531849400963693,-0.236175537109375,-0.6107635498046875,-1.0673370361328125
20230118-1500,2023-01-18 15:00:19Z,u01, 56,100,movements,wr-su, rt, d,125682.025001, -0.35776365240462366, 0.35512020840608616, 0.1997740220435021, 0.033774469047784805, -2.2544572353363037, 2.5945005416870117, -0.32833075523376465, -0.34770306944847107, -0.8782377243041992, -0.02597832679748535, -0.2244100272655487, -0.20835590362548828, 0.19040810506268596, -0.15692639528361604, 0.9668778021309079,0.06531617740513644,-0.337127685546875,-0.5971832275390625,-1.0786895751953125
20230118-1500,2023-01-18 15:00:19Z,u01, 57,100,movements,wr-su, rt, d,125682.035024875, -0.3879516047761319, 0.34525616328223446, 0.2259396540550082, -0.09529654681682587, -1.972638726234436, 2.69338059425354, -0.35596951842308044, -0.3384377360343933, -0.8710600733757019, -0.0022458434104919434, -0.16359174251556396, -0.1668427586555481, 0.18888305937975317, -0.16968547130983822, 0.9642319590777298,0.07607142037450748,-0.352142333984375,-0.5345458984375,-1.06854248046875
20230118-1500,2023-01-18 15:00:19Z,u01, 58,100,movements,wr-su, rt, d,125682.045046875, -0.4144776439830313, 0.332661430901752, 0.2519374228054169, -0.312177449464798, -1.5690025091171265, 2.7943012714385986, -0.38063380122184753, -0.3265596926212311, -0.8651454448699951, -0.023602008819580078, -0.1605924367904663, -0.1422092318534851, 0.18623228994193758, -0.1809552625065, 0.9617299355235926,0.0874543017999792,-0.377716064453125,-0.4872894287109375,-1.017974853515625
20230118-1500,2023-01-18 15:00:19Z,u01, 59,100,movements,wr-su, rt, d,125682.055069875, -0.43623323182668566, 0.3173458821302941, 0.2776285546363423, -0.4465321898460388, -1.1521583795547485, 2.8936822414398193, -0.4014303386211395, -0.312046080827713, -0.8610928654670715, -0.05244237184524536, -0.17643359303474426, -0.1309419870376587, 0.18234601506526782, -0.19027216508558784, 0.9594998807718859,0.09953081282240658,-0.4295501708984375,-0.490478515625,-0.9984283447265625
20230118-1500,2023-01-18 15:00:19Z,u01, 60,100,movements,wr-su, rt, d,125682.06509287501, -0.45426818735493407, 0.30094569781479363, 0.303861871191141, -0.3238411545753479, -0.8622735738754272, 3.0224616527557373, -0.41908344626426697, -0.2964235246181488, -0.858197033405304, -0.06523051857948303, -0.15339034795761108, -0.15751945972442627, 0.17806913409400482, -0.19797186360990315, 0.9573186933108627,0.11242579303851655,-0.476287841796875,-0.475311279296875,-0.9960784912109375
20230118-1500,2023-01-18 15:00:19Z,u01, 61,100,movements,wr-su, rt, d,125682.07511487501, -0.4696674029506472, 0.2855724716241854, 0.3317759848034323, -0.03447776660323143, -0.6050676107406616, 3.099494218826294, -0.4342601001262665, -0.2817067801952362, -0.8556047081947327, -0.015675842761993408, -0.11323651671409607, -0.14582955837249756, 0.1745271491883052, -0.20429857639042373, 0.9549080176859741,0.1263052459300743,-0.4716644287109375,-0.4229888916015625,-1.01898193359375
20230118-1500,2023-01-18 15:00:19Z,u01, 62,100,movements,wr-su, rt, d,125682.08513787501, -0.48252917457624955, 0.2725827763888484, 0.3610393130112553, 0.2999396324157715, -0.3661551773548126, 3.075009822845459, -0.44688883423805237, -0.2692197561264038, -0.8531184196472168, 0.01183021068572998, -0.024603545665740967, -0.03361552953720093, 0.1722907442834691, -0.20918096561041738, 0.9522278631371074,0.1407880142745923,-0.437164306640625,-0.3515167236328125,-0.95733642578125
20230118-1500,2023-01-18 15:00:19Z,u01, 63,100,movements,wr-su, rt, d,125682.095160875, -0.4933675811550506, 0.2618605662442488, 0.3909555414142374, 0.4869117736816406, -0.2296322137117386, 3.005669355392456, -0.45744970440864563, -0.2588781416416168, -0.8507184386253357, -0.011834383010864258, 0.061078399419784546, 0.10923290252685547, 0.1712173032678999, -0.21289763976039638, 0.9493094667162157,0.15546972557308797,-0.4476165771484375,-0.2359161376953125,-0.813568115234375
20230118-1500,2023-01-18 15:00:19Z,u01, 64,100,movements,wr-su, rt, d,125682.10518387501, -0.5025345043699964, 0.25228795062397674, 0.4204342783811563, 0.5329863429069519, -0.10381968319416046, 2.9062063694000244, -0.4664011001586914, -0.24962013959884644, -0.8486223220825195, -0.04859831929206848, 0.05207979679107666, 0.23470020294189453, 0.17064666362683772, -0.21579750150196964, 0.9462757376845502,0.16992194290428447,-0.49395751953125,-0.1863250732421875,-0.6743011474609375
20230118-1500,2023-01-18 15:00:20Z,u01, 65,100,movements,wr-su, rt, d,125682.115205875, -0.5098247590797718, 0.24277179314835692, 0.4488446273703695, 0.4669307768344879, 0.05024578422307968, 2.8242294788360596, -0.4737131595611572, -0.24039405584335327, -0.8472346663475037, -0.07140707969665527, -0.00519619882106781, 0.35356706380844116, 0.16994040074604233, -0.2179516956289378, 0.9432717552815418,0.1839992622450339,-0.5301361083984375,-0.222381591796875,-0.5528564453125
20230118-1500,2023-01-18 15:00:20Z,u01, 66,100,movements,wr-su, rt, d,125682.12522887501, -0.5146176175946744, 0.2329017221340068, 0.4761165292693636, 0.40077945590019226, 0.2825586497783661, 2.746713876724243, -0.47891294956207275, -0.23080186545848846, -0.8469786643981934, -0.08633366227149963, -0.02943684160709381, 0.45527034997940063, 0.16879764288074228, -0.21913013644527055, 0.9404119000701117,0.19777461107720104,-0.5569610595703125,-0.257476806640625,-0.4398651123046875
20230118-1500,2023-01-18 15:00:20Z,u01, 67,100,movements,wr-su, rt, d,125682.135251875, -0.5162805512086526, 0.22285886342638775, 0.5018823346698638, 0.3436635434627533, 0.5541856288909912, 2.590796709060669, -0.4814407527446747, -0.2210186868906021, -0.8481541872024536, -0.0972030758857727, -0.011464253067970276, 0.5374547839164734, 0.16714474561005205, -0.21905602074023797, 0.9378237275246889,0.21110109508808483,-0.57196044921875,-0.254913330078125,-0.3459014892578125
20230118-1500,2023-01-18 15:00:20Z,u01, 68,100,movements,wr-su, rt, d,125682.145274875, -0.5144378094907663, 0.21373348246987478, 0.5261915093244237, 0.40417376160621643, 0.859417200088501, 2.437861919403076, -0.48084941506385803, -0.21210989356040955, -0.8507604002952576, -0.10502707958221436, 0.06158187985420227, 0.5704259872436523, 0.1653872854122727, -0.21740940144811224, 0.9355523593850392,0.22387953262599333,-0.583251953125,-0.192596435546875,-0.285064697265625
20230118-1500,2023-01-18 15:00:20Z,u01, 69,100,movements,wr-su, rt, d,125682.155296875, -0.5094918802707459, 0.2058340025398857, 0.5496237259455811, 0.4691222310066223, 1.086806058883667, 2.3191699981689453, -0.4774380922317505, -0.20438362658023834, -0.8545643091201782, -0.0885409414768219, 0.13228578865528107, 0.496776282787323, 0.1637115128477126, -0.21428106940943242, 0.933511664943981,0.23630082156984464,-0.58172607421875,-0.1143341064453125,-0.310760498046875
20230118-1500,2023-01-18 15:00:20Z,u01, 70,100,movements,wr-su, rt, d,125682.16531987501, -0.502443125354172, 0.1996341809794048, 0.5724217191074271, 0.6137627959251404, 1.2228883504867554, 2.1738152503967285, -0.4720038175582886, -0.19831079244613647, -0.8590024709701538, -0.022670894861221313, 0.2114180624485016, 0.4237302541732788, 0.16242844877337587, -0.21003753034820827, 0.9315754019016964,0.2483315819929787,-0.5360107421875,-0.021728515625,-0.400390625
20230118-1500,2023-01-18 15:00:20Z,u01, 71,100,movements,wr-su, rt, d,125682.17534287501, -0.4943086052144613, 0.19540530520321578, 0.5944750633983789, 0.6935535669326782, 1.2465909719467163, 2.021456241607666, -0.46539440751075745, -0.19416414201259613, -0.8635440468788147, 0.04661691188812256, 0.18493252992630005, 0.3318973779678345, 0.16174565586177495, -0.20510075318594212, 0.9296622712258749,0.25980773634888976,-0.4532012939453125,0.014129638671875,-0.4788055419921875
20230118-1500,2023-01-18 15:00:20Z,u01, 72,100,movements,wr-su, rt, d,125682.18536487501, -0.4862545853302404, 0.19271914490206976, 0.6155590440209369, 0.7620101571083069, 1.1909029483795166, 1.8685188293457031, -0.45866647362709045, -0.19152840971946716, -0.8677222728729248, 0.09341681003570557, 0.13562016189098358, 0.3171241879463196, 0.1615848347842942, -0.20007301387697934, 0.9277061131466323,0.2705963953749021,-0.3910675048828125,-0.0330963134765625,-0.5710906982421875
20230118-1500,2023-01-18 15:00:20Z,u01, 73,100,movements,wr-su, rt, d,125682.195387875, -0.4788029346127934, 0.19174222012207484, 0.6343613703638145, 0.9204975366592407, 0.9567690491676331, 1.4824835062026978, -0.45227381587028503, -0.19056947529315948, -0.871281623840332, 0.14038413763046265, 0.0374932736158371, 0.3472033143043518, 0.16197149946459388, -0.1952547791568526, 0.9258618470245914,0.2800366494655426,-0.3334503173828125,-0.103546142578125,-0.5035247802734375
20230118-1500,2023-01-18 15:00:20Z,u01, 74,100,movements,wr-su, rt, d,125682.205410875, -0.4737469242902723, 0.19554721880149692, 0.6511197087110561, 1.2112714052200317, 0.7353783249855042, 1.0682340860366821, -0.44752880930900574, -0.19430334866046906, -0.8729056119918823, 0.08981698751449585, 0.021589085459709167, 0.4238852858543396, 0.16460401268627875, -0.1909259347321535, 0.92394297414506,0.28771913196402943,-0.3218231201171875,-0.1724700927734375,-0.401702880859375
20230118-1500,2023-01-18 15:00:20Z,u01, 75,100,movements,wr-su, rt, d,125682.21543387501, -0.46871334565088896, 0.2031217073125304, 0.665346195981765, 1.46282160282135, 0.80509352684021, 0.7806678414344788, -0.44245174527168274, -0.20172783732414246, -0.8738090991973877, 0.04654717445373535, 0.4353856146335602, 0.1549980640411377, 0.16865266802926862, -0.1861497575424416, 0.9222869152812927,0.2937539659937968,-0.3818359375,-0.045135498046875,-0.665863037109375
20230118-1500,2023-01-18 15:00:20Z,u01, 76,100,movements,wr-su, rt, d,125682.22545587501, -0.46416410602221, 0.2142424968058531, 0.6803174506035311, 1.771953821182251, 0.7285398840904236, 0.8144719004631042, -0.4374406337738037, -0.21260730922222137, -0.8737527132034302, 0.04103252291679382, 0.6052159070968628, 0.14314669370651245, 0.1743861477104649, -0.18086765346046263, 0.9203733657668672,0.2996484582156327,-0.405548095703125,0.434478759765625,-0.651275634765625
20230118-1500,2023-01-18 15:00:20Z,u01, 77,100,movements,wr-su, rt, d,125682.23547887501, -0.4596986381926904, 0.22631318789500285, 0.6938848874246838, 1.5063068866729736, 0.764451265335083, 0.4419076144695282, -0.4323643743991852, -0.22438625991344452, -0.873333752155304, 0.10190474987030029, 0.30490684509277344, -0.24095451831817627, 0.18036726892031632, -0.17550148932614046, 0.9185756361118412,0.30477148871813736,-0.3686676025390625,0.2048187255859375,-0.93902587890625
20230118-1500,2023-01-18 15:00:20Z,u01, 78,100,movements,wr-su, rt, d,125682.245501875, -0.45381843292232654, 0.23714645132252107, 0.7027126267503698, 1.2191240787506104, 0.8044138550758362, 0.1822238266468048, -0.42613083124160767, -0.2349299043416977, -0.8736249208450317, 0.11828473210334778, 0.4521082043647766, -0.332841694355011, 0.18510502165760614, -0.1700696388790527, 0.9175748998679611,0.3080077722721497,-0.3090362548828125,0.1064910888671875,-1.192779541015625
20230118-1500,2023-01-18 15:00:20Z,u01, 79,100,movements,wr-su, rt, d,125682.255523875, -0.4478222360971403, 0.24669671276152944, 0.70904632493065, 1.0536727905273438, 0.6764463186264038, 0.09615857899188995, -0.41989409923553467, -0.24420201778411865, -0.874101996421814, 0.13275417685508728, 0.5219729542732239, -0.35981518030166626, 0.18899977487206449, -0.16500934275042067, 0.9169373447451069,0.31028511025960076,-0.3053436279296875,0.2931671142578125,-1.2065582275390625
20230118-1500,2023-01-18 15:00:20Z,u01, 80,100,movements,wr-su, rt, d,125682.265546875, -0.4432123448797478, 0.2561484279060536, 0.7143379243487069, 1.1241717338562012, 0.5127042531967163, 0.009290795773267746, -0.41485175490379333, -0.25335654616355896, -0.8739041686058044, 0.16491276025772095, 0.3983912765979767, -0.4100465774536133, 0.1929541105007629, -0.16067552230783272, 0.9163087364051893,0.3119782631893646,-0.2645263671875,0.20916748046875,-1.268768310546875
20230118-1500,2023-01-18 15:00:20Z,u01, 81,100,movements,wr-su, rt, d,125682.27556987501, -0.4399497428349679, 0.26758206098609794, 0.7193831118364539, 1.3698185682296753, 0.4020799696445465, -0.09969180077314377, -0.4107377231121063, -0.26440033316612244, -0.8725749254226685, 0.14917153120040894, 0.37232571840286255, -0.38159066438674927, 0.19796585008210163, -0.15659518939134853, 0.9155324923497474,0.3131897494327517,-0.24957275390625,0.1100006103515625,-1.2790679931640625
20230118-1500,2023-01-18 15:00:20Z,u01, 82,100,movements,wr-su, rt, d,125682.285592875, -0.43768222824853426, 0.28160874045973805, 0.7247144034917269, 1.5723601579666138, 0.338492751121521, -0.1582067757844925, -0.40714603662490845, -0.27790138125419617, -0.8700591325759888, 0.10506772994995117, 0.3975912630558014, -0.34464722871780396, 0.2042919904291401, -0.15243097903348737, 0.9145292171853087,0.31411137592092836,-0.280059814453125,0.12261962890625,-1.2279205322265625
20230118-1500,2023-01-18 15:00:20Z,u01, 83,100,movements,wr-su, rt, d,125682.29561487501, -0.435955649331867, 0.2968010087475555, 0.7296249981542027, 1.5497972965240479, 0.28667721152305603, -0.27841702103614807, -0.4038136303424835, -0.2924625873565674, -0.8668334484100342, 0.08092236518859863, 0.3239414393901825, -0.3270905017852783, 0.21116400537263424, -0.14830054390951192, 0.9134675932313157,0.3146325777908513,-0.3155975341796875,0.084564208984375,-1.2091064453125
20230118-1500,2023-01-18 15:00:20Z,u01, 84,100,movements,wr-su, rt, d,125682.305637875, -0.43426569833964107, 0.3115263853200726, 0.7331520008506325, 1.3924132585525513, 0.2625228762626648, -0.3398367166519165, -0.4004926085472107, -0.30651190876960754, -0.8635138273239136, 0.053324609994888306, 0.22931769490242004, -0.26327139139175415, 0.21770640886903825, -0.14438492734799038, 0.912581093844921,0.31456745058089536,-0.3314971923828125,-0.0269012451171875,-1.160430908203125
20230118-1500,2023-01-18 15:00:20Z,u01, 85,100,movements,wr-su, rt, d,125682.31566087501, -0.4323784641863616, 0.3251820871635175, 0.7356346493822157, 1.2834546566009521, 0.2734043002128601, -0.3798360526561737, -0.3970711827278137, -0.31948134303092957, -0.8603872060775757, 0.021842271089553833, 0.17659801244735718, -0.18059784173965454, 0.2236481784412183, -0.14066943963489068, 0.9118591066968887,0.31417598964509164,-0.363128662109375,-0.1127777099609375,-1.0900115966796875
20230118-1500,2023-01-18 15:00:20Z,u01, 86,100,movements,wr-su, rt, d,125682.32568387501, -0.4300172462493382, 0.337951740986103, 0.7371653655667579, 1.145881175994873, 0.29859140515327454, -0.4274589717388153, -0.39330559968948364, -0.33155539631843567, -0.8575440049171448, -0.010533541440963745, 0.1281404197216034, -0.09962451457977295, 0.22904197314150548, -0.13699553186549826, 0.9113074128597687,0.3135135379613193,-0.387939453125,-0.1758270263671875,-0.99652099609375
20230118-1500,2023-01-18 15:00:20Z,u01, 87,100,movements,wr-su, rt, d,125682.33570587501, -0.4270441789736493, 0.3499402833281721, 0.7378066659387738, 1.0964939594268799, 0.3377140462398529, -0.4480253756046295, -0.3890799880027771, -0.3428417146205902, -0.8550300002098083, -0.031864285469055176, 0.11762192845344543, -0.053249359130859375, 0.2339241956756544, -0.1332834079420796, 0.9109255947137548,0.31261716961690905,-0.414337158203125,-0.2175140380859375,-0.9259490966796875
20230118-1500,2023-01-18 15:00:20Z,u01, 88,100,movements,wr-su, rt, d,125682.345728875, -0.4236781976311031, 0.36159117628015275, 0.7383776377413431, 1.0637046098709106, 0.37495702505111694, -0.41509565711021423, -0.3845314085483551, -0.3537629544734955, -0.8526355028152466, -0.034124016761779785, 0.0918610692024231, -0.06666070222854614, 0.2385847920624881, -0.1294586335495783, 0.9105543855566718,0.3117825816011695,-0.423095703125,-0.243896484375,-0.90728759765625
20230118-1500,2023-01-18 15:00:20Z,u01, 89,100,movements,wr-su, rt, d,125682.355751875, -0.4199952602975933, 0.3729103244473329, 0.7389169871827834, 1.0310590267181396, 0.39579305052757263, -0.42171958088874817, -0.3797314465045929, -0.3643272817134857, -0.8503350019454956, -0.016768217086791992, 0.10627061128616333, -0.05034548044204712, 0.243041867526984, -0.125551353549128, 0.9101833544648026,0.31102035362921604,-0.407318115234375,-0.2650909423828125,-0.918365478515625
20230118-1500,2023-01-18 15:00:20Z,u01, 90,100,movements,wr-su, rt, d,125682.365773875, -0.4161329593159222, 0.383735739528544, 0.739079964349512, 0.9529333710670471, 0.38695189356803894, -0.42518967390060425, -0.3748281002044678, -0.37438711524009705, -0.8481380939483643, -0.00032454729080200195, 0.09666186571121216, -0.027289152145385742, 0.24722525393277783, -0.12169891267272928, 0.9098669220538348,0.31017959710411924,-0.385009765625,-0.260589599609375,-0.886474609375
20230118-1500,2023-01-18 15:00:20Z,u01, 91,100,movements,wr-su, rt, d,125682.37579687501, -0.41209396787454194, 0.3937442755334626, 0.7389103387410277, 0.8550057411193848, 0.4088819622993469, -0.40955850481987, -0.3698800206184387, -0.3836488425731659, -0.8461692333221436, 0.003211289644241333, 0.059124886989593506, -0.011634111404418945, 0.2509986509908086, -0.11796215378443439, 0.9096176046535066,0.309322628811713,-0.36883544921875,-0.2984771728515625,-0.8664093017578125
20230118-1500,2023-01-18 15:00:20Z,u01, 92,100,movements,wr-su, rt, d,125682.38581987501, -0.4076682967088867, 0.40272360588506423, 0.738335597286028, 0.7538447380065918, 0.43224695324897766, -0.39622485637664795, -0.36475101113319397, -0.39192551374435425, -0.8446011543273926, -0.009852290153503418, 0.027057290077209473, 0.005398273468017578, 0.2542348470397303, -0.11429814051388405, 0.9094757543861536,0.30847114526462,-0.3690948486328125,-0.3476409912109375,-0.8501739501953125
20230118-1500,2023-01-18 15:00:20Z,u01, 93,100,movements,wr-su, rt, d,125682.395842875, -0.40293985612380284, 0.4108395779639888, 0.7376737651828202, 0.682828962802887, 0.4571400284767151, -0.35293054580688477, -0.3594941198825836, -0.3993791937828064, -0.8433624505996704, -0.024584859609603882, 0.009089857339859009, 0.0071350932121276855, 0.25704066816802723, -0.11067461818694034, 0.9093832555337398,0.30773893112660883,-0.3801422119140625,-0.3751220703125,-0.832061767578125
20230118-1500,2023-01-18 15:00:20Z,u01, 94,100,movements,wr-su, rt, d,125682.405864875, -0.3980552025131781, 0.4180132881588405, 0.7369614877691728, 0.5825340747833252, 0.45885324478149414, -0.3262706995010376, -0.35425063967704773, -0.4059455990791321, -0.8424456119537354, -0.025677978992462158, -0.013030260801315308, 0.006462395191192627, 0.2594069658698055, -0.10716905803731568, 0.9093358164803256,0.3071338243618302,-0.3829498291015625,-0.4061737060546875,-0.841827392578125
20230118-1500,2023-01-18 15:00:20Z,u01, 95,100,movements,wr-su, rt, d,125682.415887875, -0.39312490569029446, 0.42431691482476347, 0.7361928827209177, 0.5480725169181824, 0.46090734004974365, -0.28296589851379395, -0.3491056263446808, -0.4116983711719513, -0.8418014645576477, -0.0230715274810791, -0.03826811909675598, 0.01926124095916748, 0.2613827355517286, -0.10381869755608247, 0.9093292651826672,0.30662864520742944,-0.3761444091796875,-0.433319091796875,-0.8265533447265625
20230118-1500,2023-01-18 15:00:20Z,u01, 96,100,movements,wr-su, rt, d,125682.42591087501, -0.38833706799348383, 0.43047404658407196, 0.7360776027216647, 0.5792635083198547, 0.47980034351348877, -0.2067640870809555, -0.3441048562526703, -0.41730165481567383, -0.8411011695861816, -0.017192751169204712, -0.04815247654914856, -0.020226895809173584, 0.2633511143439528, -0.10047692767939394, 0.9092039186428059,0.30642896842607276,-0.367889404296875,-0.464996337890625,-0.828765869140625
20230118-1500,2023-01-18 15:00:20Z,u01, 97,100,movements,wr-su, rt, d,125682.43593287501, -0.3838468016324871, 0.43660787587098543, 0.7365533894226959, 0.5832229852676392, 0.4522573947906494, -0.1751020848751068, -0.33935967087745667, -0.4228679835796356, -0.8402485847473145, 0.007221609354019165, 0.0009472072124481201, -0.05995887517929077, 0.2653835985741977, -0.09719704166426799, 0.9089557244215526,0.3064696758987855,-0.349761962890625,-0.4477081298828125,-0.892364501953125
20230118-1500,2023-01-18 15:00:20Z,u01, 98,100,movements,wr-su, rt, d,125682.44595587501, -0.3799613824469594, 0.4424353813853425, 0.7372906419907382, 0.5429897904396057, 0.38172757625579834, -0.13429713249206543, -0.33517274260520935, -0.42814162373542786, -0.8392580151557922, 0.03950315713882446, 0.01948067545890808, -0.07597935199737549, 0.26738452524914696, -0.09421523881303016, 0.9086413681723398,0.30659406759670144,-0.314208984375,-0.4064788818359375,-0.9074859619140625
20230118-1500,2023-01-18 15:00:20Z,u01, 99,100,movements,wr-su, rt, d,125682.455978875, -0.37681586322117006, 0.4477052523224112, 0.7382436854437695, 0.49286261200904846, 0.3339288830757141, -0.09833497554063797, -0.33169636130332947, -0.4328981041908264, -0.8381985425949097, 0.05770951509475708, 0.00916147232055664, -0.07626068592071533, 0.26926132955234205, -0.09164644529741664, 0.9082829037198727,0.30679221957312053,-0.2816009521484375,-0.416534423828125,-0.916778564453125
20230118-1500,2023-01-18 15:00:20Z,u01, 100,100,movements,wr-su, rt, d,125682.46600187501, -0.3739116113399053, 0.45227346294586285, 0.7392007233307645, 0.41800326108932495, 0.3292846083641052, -0.07759907096624374, -0.328534871339798, -0.4370115399360657, -0.8373086452484131, 0.046201467514038086, 0.012740850448608398, -0.06079310178756714, 0.27086452125737137, -0.08932014123432658, 0.907950545479785,0.30705078112355666,-0.274444580078125,-0.4250030517578125,-0.90887451171875
20230118-1500,2023-01-18 15:00:20Z,u01, 101,100,movements,wr-su, rt, d,125682.476023875, -0.3710285697401599, 0.4561616784951948, 0.740170106385754, 0.36797577142715454, 0.33099809288978577, -0.03881822153925896, -0.3255009651184082, -0.4405055046081543, -0.8366624712944031, 0.020615071058273315, 0.01962226629257202, -0.037376224994659424, 0.27217067464641387, -0.08713150464872317, 0.9076545451399458,0.30739967388969225,-0.2958526611328125,-0.42132568359375,-0.8847808837890625
20230118-1500,2023-01-18 15:00:20Z,u01, 102,100,movements,wr-su, rt, d,125682.48604687501, -0.3682764120831142, 0.459585738098408, 0.7414389887227135, 0.3506588339805603, 0.32893601059913635, 0.0017398555064573884, -0.3226522207260132, -0.4435768723487854, -0.8361430168151855, 0.006581604480743408, 0.022892028093338013, -0.012733876705169678, 0.2733038862701521, -0.08504983785718419, 0.907332734135227,0.3079268438791384,-0.3119964599609375,-0.4220428466796875,-0.86114501953125
20230118-1500,2023-01-18 15:00:20Z,u01, 103,100,movements,wr-su, rt, d,125682.49606987501, -0.36548576854543313, 0.46269246536257785, 0.7428242766272873, 0.31054747104644775, 0.32357266545295715, 0.017291411757469177, -0.3198235034942627, -0.4463590979576111, -0.835749089717865, 0.004363268613815308, 0.03066384792327881, 0.01540607213973999, 0.2742941960343975, -0.08299489033983533, 0.9070112201198584,0.3085535834314982,-0.31622314453125,-0.417449951171875,-0.835784912109375
20230118-1500,2023-01-18 15:00:20Z,u01, 104,100,movements,wr-su, rt, d,125682.506092875, -0.3626731978524616, 0.46523715140730026, 0.7441086483587709, 0.24575544893741608, 0.329526424407959, 0.028406115248799324, -0.31706762313842773, -0.4486347734928131, -0.835580587387085, -0.004236727952957153, 0.029246896505355835, 0.049783527851104736, 0.2750279089629197, -0.08105148814096785, 0.9067415022507139,0.3092088741459228,-0.316162109375,-0.416717529296875,-0.8011474609375
20230118-1500,2023-01-18 15:00:20Z,u01, 105,100,movements,wr-su, rt, d,125682.516114875, -0.3596910010047724, 0.46716402479002356, 0.7452978561720969, 0.18923501670360565, 0.3482804000377655, 0.048502564430236816, -0.3142695128917694, -0.45035600662231445, -0.8357117772102356, -0.014511644840240479, 0.014641255140304565, 0.07130753993988037, 0.2754583242284653, -0.07916323830265812, 0.9065343090611923,0.30992189260972225,-0.325775146484375,-0.4270477294921875,-0.772308349609375
20230118-1500,2023-01-18 15:00:20Z,u01, 106,100,movements,wr-su, rt, d,125682.52613787501, -0.3564573621553823, 0.46851815533870605, 0.7465437462455081, 0.13779233396053314, 0.3892565965652466, 0.07770439237356186, -0.311352401971817, -0.45156461000442505, -0.8361513614654541, -0.02429521083831787, 0.006740361452102661, 0.07263213396072388, 0.2755986435686357, -0.07726385287272727, 0.906366334364305,0.31076654834235456,-0.3321075439453125,-0.4427490234375,-0.763427734375
20230118-1500,2023-01-18 15:00:20Z,u01, 107,100,movements,wr-su, rt, d,125682.53616087501, -0.35290993193044284, 0.46918253002502985, 0.747818783717162, 0.06184949353337288, 0.4096042215824127, 0.10333383083343506, -0.30828049778938293, -0.45215731859207153, -0.8369688987731934, -0.027199268341064453, 0.0073178112506866455, 0.062326014041900635, 0.2753863416960515, -0.07535193924440547, 0.9062533136906169,0.31175219943719024,-0.3367462158203125,-0.4444732666015625,-0.769622802734375
20230118-1500,2023-01-18 15:00:20Z,u01, 108,100,movements,wr-su, rt, d,125682.54618287501, -0.34924111906286515, 0.46925900524290765, 0.7491454602993055, 0.03879211097955704, 0.425018310546875, 0.12804211676120758, -0.3051958978176117, -0.4522255063056946, -0.8380618095397949, -0.025355279445648193, -0.013610094785690308, 0.05894804000854492, 0.2748963423243564, -0.07349222728129146, 0.9061768891203548,0.3128488049598388,-0.3332672119140625,-0.4518890380859375,-0.775787353515625
20230118-1500,2023-01-18 15:00:20Z,u01, 109,100,movements,wr-su, rt, d,125682.55620587501, -0.3455798802350127, 0.46939054878039277, 0.7508275638900402, 0.10209883749485016, 0.4458540976047516, 0.15720127522945404, -0.3021053671836853, -0.45234283804893494, -0.8391175866127014, -0.025607675313949585, -0.034488826990127563, 0.04483664035797119, 0.2744411812871088, -0.07157693362704608, 0.9060359707334317,0.3140979082977313,-0.3276824951171875,-0.4797515869140625,-0.785247802734375
20230118-1500,2023-01-18 15:00:20Z,u01, 110,100,movements,wr-su, rt, d,125682.566228875, -0.34193367451640944, 0.47027703152148226, 0.7532699513112627, 0.1982455998659134, 0.48650166392326355, 0.1980120837688446, -0.29890918731689453, -0.4531332552433014, -0.8398354649543762, -0.031703025102615356, 0.004372239112854004, 0.007590591907501221, 0.27434179783570045, -0.06941797993099892, 0.9057126595010194,0.3155984817413089,-0.3296661376953125,-0.474609375,-0.808319091796875
20230118-1500,2023-01-18 15:00:20Z,u01, 111,100,movements,wr-su, rt, d,125682.57625187501, -0.3383160116629639, 0.4716322487240847, 0.7562576888846159, 0.21678897738456726, 0.49153557419776917, 0.2191390097141266, -0.29566490650177, -0.45434093475341797, -0.8403312563896179, -0.02135169506072998, 0.04770940542221069, 0.006865739822387695, 0.2744652149517863, -0.06710601879267145, 0.9052597062060016,0.31728642104150423,-0.324798583984375,-0.4224395751953125,-0.843170166015625
20230118-1500,2023-01-18 15:00:20Z,u01, 112,100,movements,wr-su, rt, d,125682.58627387501, -0.3347209598597964, 0.47268108524580255, 0.75940312673976, 0.15435943007469177, 0.5004917979240417, 0.24543319642543793, -0.2924852669239044, -0.4552750289440155, -0.840938150882721, -0.010813713073730469, 0.029356390237808228, 0.011760354042053223, 0.27445648907313436, -0.06484251016046609, 0.9047969766612078,0.3190790856009215,-0.309783935546875,-0.40936279296875,-0.8281402587890625
20230118-1500,2023-01-18 15:00:20Z,u01, 113,100,movements,wr-su, rt, d,125682.59629687501, -0.3310813077642298, 0.4729772940317413, 0.7625974084986457, 0.084194116294384, 0.5084040760993958, 0.27396175265312195, -0.2893787622451782, -0.4555387496948242, -0.841869592666626, -0.005787253379821777, -0.002621680498123169, 0.018703758716583252, 0.27410563379246594, -0.06270018134122302, 0.9043790090014419,0.3209881286941844,-0.2980499267578125,-0.444610595703125,-0.826904296875
20230118-1500,2023-01-18 15:00:20Z,u01, 114,100,movements,wr-su, rt, d,125682.606319875, -0.3273854342514999, 0.4724877451010404, 0.7658040319646018, 0.004849495366215706, 0.515415608882904, 0.2955527901649475, -0.2863370478153229, -0.4551028907299042, -0.843144416809082, -0.009897112846374512, -0.0122128427028656, 0.02283191680908203, 0.27339518502800275, -0.06068662838363635, 0.9040147440550648,0.32300097383403303,-0.29541015625,-0.4652862548828125,-0.82122802734375
20230118-1500,2023-01-18 15:00:20Z,u01, 115,100,movements,wr-su, rt, d,125682.616342875, -0.32354377770227694, 0.4713425987331033, 0.7688989512066492, -0.03687775135040283, 0.5258616209030151, 0.30201128125190735, -0.28326135873794556, -0.4540829062461853, -0.8447317481040955, -0.012042015790939331, 0.0019801855087280273, 0.042088985443115234, 0.27236391510267277, -0.05875392874697947, 0.903716699429283,0.3250569138205884,-0.2964324951171875,-0.46044921875,-0.81109619140625
20230118-1500,2023-01-18 15:00:20Z,u01, 116,100,movements,wr-su, rt, d,125682.626364875, -0.3196745068556283, 0.47025113813106295, 0.772083025670833, 0.020749328657984734, 0.5323650240898132, 0.30993178486824036, -0.2801463305950165, -0.4531101882457733, -0.8462914228439331, -0.014684021472930908, 0.00779762864112854, 0.04549497365951538, 0.27134721817468355, -0.05678880775741637, 0.9033937993068781,0.32714730503415634,-0.2953948974609375,-0.4467620849609375,-0.8018951416015625
20230118-1500,2023-01-18 15:00:20Z,u01, 117,100,movements,wr-su, rt, d,125682.63638787501, -0.3158175661011812, 0.4699802828450348, 0.7756785996281298, 0.11345522105693817, 0.5622459650039673, 0.31251195073127747, -0.2769182622432709, -0.4528687000274658, -0.8474822640419006, -0.018308788537979126, 0.03219911456108093, 0.02462160587310791, 0.27069583592612106, -0.054613528158511664, 0.9029320194437629,0.3293247175886604,-0.2957000732421875,-0.4383087158203125,-0.8057098388671875
20230118-1500,2023-01-18 15:00:20Z,u01, 118,100,movements,wr-su, rt, d,125682.64641087501, -0.3116747645492463, 0.4702966212402627, 0.7792447264372682, 0.12967494130134583, 0.5848389267921448, 0.271861732006073, -0.2733609974384308, -0.4531507194042206, -0.8484858274459839, -0.024505823850631714, 0.0799054503440857, 0.017278611660003662, 0.2702450804157857, -0.05219854638528653, 0.9024290532202918,0.33145846931733686,-0.29736328125,-0.3975372314453125,-0.8356781005859375
20230118-1500,2023-01-18 15:00:20Z,u01, 119,100,movements,wr-su, rt, d,125682.65643287501, -0.30716956993661226, 0.4706165205821163, 0.7823556250815873, 0.09786640107631683, 0.5901916027069092, 0.24056430160999298, -0.2694918215274811, -0.45343586802482605, -0.8495705127716064, -0.03189980983734131, 0.09067338705062866, 0.01641017198562622, 0.26971537750090385, -0.04968247967692238, 0.9020017865498458,0.3334337926893936,-0.299468994140625,-0.3606414794921875,-0.8273162841796875
20230118-1500,2023-01-18 15:00:20Z,u01, 120,100,movements,wr-su, rt, d,125682.666455875, -0.30251449819275417, 0.47075054141841643, 0.7851071086172277, 0.07948100566864014, 0.5888999700546265, 0.21894316375255585, -0.2655159831047058, -0.45355531573295593, -0.8507577776908875, -0.030321449041366577, 0.07364192605018616, 0.0070230960845947266, 0.26906241238523704, -0.04718604280474126, 0.901643960573088,0.33528645042382577,-0.2993316650390625,-0.372406005859375,-0.838958740234375
20230118-1500,2023-01-18 15:00:20Z,u01, 121,100,movements,wr-su, rt, d,125682.676478875, -0.2977256736073019, 0.4710311931420212, 0.7876006984324442, 0.10439743101596832, 0.5921303629875183, 0.19046534597873688, -0.2614014744758606, -0.45380541682243347, -0.8518978357315063, -0.03419181704521179, 0.07010787725448608, -0.008301138877868652, 0.26843752050222663, -0.044636237127377514, 0.9013126598763067,0.337022670760819,-0.295867919921875,-0.3811492919921875,-0.850738525390625
20230118-1500,2023-01-18 15:00:20Z,u01, 122,100,movements,wr-su, rt, d,125682.68650187501, -0.2928380311561888, 0.4716646874099958, 0.7899599112057397, 0.13722461462020874, 0.5932630300521851, 0.17738443613052368, -0.2571515738964081, -0.45436984300613403, -0.8528898358345032, -0.037404149770736694, 0.060357362031936646, -0.01499950885772705, 0.26794003254987464, -0.041990556047529125, 0.9009699159988738,0.3386711231403876,-0.296142578125,-0.3870849609375,-0.868011474609375
20230118-1500,2023-01-18 15:00:20Z,u01, 123,100,movements,wr-su, rt, d,125682.69652387501, -0.2879683639953319, 0.4724789740798459, 0.7922824619445457, 0.132553830742836, 0.5858591794967651, 0.17282801866531372, -0.25289008021354675, -0.4550950527191162, -0.8537769317626953, -0.037332117557525635, 0.03550884127616882, -0.012037217617034912, 0.2675168117548222, -0.03932273479213854, 0.90060982758099,0.34027990844812755,-0.2935028076171875,-0.4038238525390625,-0.8668365478515625
20230118-1500,2023-01-18 15:00:20Z,u01, 124,100,movements,wr-su, rt, d,125682.70654687501, -0.2832211390262174, 0.47320984790580023, 0.794546789946813, 0.12337924540042877, 0.565925121307373, 0.17408528923988342, -0.24874116480350494, -0.45574575662612915, -0.8546482920646667, -0.03639987111091614, 0.004177093505859375, -0.001354515552520752, 0.2670699287578321, -0.03673573395663421, 0.9002554019622008,0.3418544211415173,-0.2884063720703125,-0.4363250732421875,-0.863616943359375
20230118-1500,2023-01-18 15:00:20Z,u01, 125,100,movements,wr-su, rt, d,125682.716569875, -0.2786560262077669, 0.4741868044893993, 0.7969079728406903, 0.19410398602485657, 0.5681470036506653, 0.17495475709438324, -0.2447144240140915, -0.4566151201725006, -0.8553464412689209, -0.033041343092918396, -0.028095602989196777, 0.019439518451690674, 0.26675691800731427, -0.03416923199864482, 0.8998529350781358,0.3434210059158874,-0.281341552734375,-0.4687957763671875,-0.8473968505859375
20230118-1500,2023-01-18 15:00:20Z,u01, 126,100,movements,wr-su, rt, d,125682.72659287501, -0.27390387432462326, 0.4759740241249426, 0.7994785064011971, 0.26579520106315613, 0.6177382469177246, 0.1669546216726303, -0.24042581021785736, -0.4582044184207916, -0.8557126522064209, -0.03696374595165253, -0.039934009313583374, 0.025726139545440674, 0.2667625210231436, -0.03132788970016706, 0.8993428218584899,0.34501995489830733,-0.2771453857421875,-0.495941162109375,-0.8287506103515625
20230118-1500,2023-01-18 15:00:20Z,u01, 127,100,movements,wr-su, rt, d,125682.736614875, -0.2686754585973674, 0.478152256120451, 0.8019989240867409, 0.26449912786483765, 0.6521303057670593, 0.1457359939813614, -0.23568302392959595, -0.4601394534111023, -0.8559936881065369, -0.03622862696647644, -0.010762065649032593, 0.01495981216430664, 0.26684805088782343, -0.02820056161634891, 0.8988058269375852,0.3466192910382863,-0.277191162109375,-0.4867401123046875,-0.834075927734375
20230118-1500,2023-01-18 15:00:20Z,u01, 128,100,movements,wr-su, rt, d,125682.74663787501, -0.2632018905180477, 0.48008950981581827, 0.8041281719172717, 0.21092776954174042, 0.6303286552429199, 0.12290337681770325, -0.2307618260383606, -0.4618585705757141, -0.8564085960388184, -0.020474180579185486, -0.012872934341430664, 0.01040029525756836, 0.2667723202972991, -0.025064739685343035, 0.8983479882027653,0.3481022797350526,-0.2632904052734375,-0.4662933349609375,-0.843048095703125
20230118-1500,2023-01-18 15:00:20Z,u01, 129,100,movements,wr-su, rt, d,125682.756660875, -0.2580177961940668, 0.481574787165097, 0.80612398912905, 0.1670910269021988, 0.5898944139480591, 0.14242003858089447, -0.2261437475681305, -0.4631754159927368, -0.8569291234016418, 0.0033348798751831055, -0.04681912064552307, -0.002171158790588379, 0.26654072606452034, -0.022169286286694328, 0.8979365224120781,0.34953481357621924,-0.2370758056640625,-0.491241455078125,-0.8504180908203125
20230118-1500,2023-01-18 15:00:20Z,u01, 130,100,movements,wr-su, rt, d,125682.76668287501, -0.25321835562829054, 0.4826636415093391, 0.8081411533662854, 0.14289487898349762, 0.5568565130233765, 0.1382995992898941, -0.22190190851688385, -0.4641401767730713, -0.8575158715248108, 0.018715843558311462, -0.0462663471698761, -0.011929869651794434, 0.26619698831037536, -0.019525151457090023, 0.8975412094882164,0.35096687074195465,-0.21136474609375,-0.5192413330078125,-0.8689117431640625
20230118-1500,2023-01-18 15:00:20Z,u01, 131,100,movements,wr-su, rt, d,125682.776705875, -0.24859112442426845, 0.4838906786900114, 0.8100132753690052, 0.184173583984375, 0.5444251894950867, 0.12268861383199692, -0.2177913337945938, -0.4652266800403595, -0.8579808473587036, 0.015581831336021423, -0.0020737946033477783, 0.008340954780578613, 0.2659365785749225, -0.01695048869623386, 0.897149771930934,0.35229655696738427,-0.20098876953125,-0.4901580810546875,-0.8592071533203125
20230118-1500,2023-01-18 15:00:20Z,u01, 132,100,movements,wr-su, rt, d,125682.78672887501, -0.24401684778778496, 0.48569216165072576, 0.8119443457259922, 0.2460063248872757, 0.5506649613380432, 0.11965527385473251, -0.21366159617900848, -0.4668205976486206, -0.8581534028053284, 0.004967093467712402, 0.03295212984085083, 0.019652485847473145, 0.2659313948858744, -0.0142756008569697, 0.8966897894285633,0.35358746965918647,-0.205657958984375,-0.4493865966796875,-0.8447113037109375
20230118-1500,2023-01-18 15:00:20Z,u01, 133,100,movements,wr-su, rt, d,125682.79675187501, -0.2393126010973436, 0.4879574405874283, 0.813860884837078, 0.2696587145328522, 0.5703481435775757, 0.09386672079563141, -0.20937107503414154, -0.4688226878643036, -0.8581194877624512, -0.002161562442779541, 0.046428829431533813, 0.03464841842651367, 0.26609989756765734, -0.011450499117881765, 0.8961840309187468,0.3548433641486045,-0.2091217041015625,-0.4228668212890625,-0.82977294921875
20230118-1500,2023-01-18 15:00:20Z,u01, 134,100,movements,wr-su, rt, d,125682.80677387501, -0.23413998827158886, 0.49032379671035786, 0.815397544117448, 0.2534395456314087, 0.606949508190155, 0.06064698100090027, -0.20467162132263184, -0.47091156244277954, -0.8581094741821289, -0.013910561800003052, 0.022516757249832153, 0.056366920471191406, 0.2662215789337698, -0.008446155518370364, 0.8957292951990017,0.35598294070844255,-0.2140350341796875,-0.4315032958984375,-0.8124847412109375
20230118-1500,2023-01-18 15:00:20Z,u01, 135,100,movements,wr-su, rt, d,125682.816796875, -0.22861973382130227, 0.4926043143164986, 0.8167266460447555, 0.24085763096809387, 0.6159659624099731, 0.06868769973516464, -0.1996876299381256, -0.4729221761226654, -0.8581780195236206, -0.02069510519504547, -0.02326318621635437, 0.061806559562683105, 0.2662377887376714, -0.005332161889476124, 0.8953091305532237,0.35708636741381367,-0.2205963134765625,-0.470001220703125,-0.7976226806640625
20230118-1500,2023-01-18 15:00:20Z,u01, 136,100,movements,wr-su, rt, d,125682.826819875, -0.22315550001078255, 0.4946274519466162, 0.8181911797035507, 0.20646025240421295, 0.6118585467338562, 0.09029951691627502, -0.19478324055671692, -0.4747037887573242, -0.858321487903595, -0.012141227722167969, -0.06631186604499817, 0.053420424461364746, 0.26614668100851974, -0.0022787933592461496, 0.8948761500750682,0.3582700516393817,-0.214874267578125,-0.522003173828125,-0.800079345703125
20230118-1500,2023-01-18 15:00:20Z,u01, 137,100,movements,wr-su, rt, d,125682.83684287501, -0.21778012254705945, 0.4961318248728114, 0.8197318431035148, 0.14658190310001373, 0.6097485423088074, 0.10768307000398636, -0.1900121420621872, -0.47602730989456177, -0.8586578965187073, -0.00017344951629638672, -0.08810541033744812, 0.06599438190460205, 0.2658395078639395, 0.0006378851458962838, 0.8944656993890003,0.35952758625206704,-0.1979827880859375,-0.554473876953125,-0.8006439208984375
20230118-1500,2023-01-18 15:00:20Z,u01, 138,100,movements,wr-su, rt, d,125682.84686487501, -0.21246481723585128, 0.49706483148862646, 0.8214932569361502, 0.10086900740861893, 0.6213958263397217, 0.15624473989009857, -0.18535171449184418, -0.4768476188182831, -0.8592212200164795, 0.0057404786348342896, -0.1045427918434143, 0.06960946321487427, 0.2652877184575732, 0.003439038680096743, 0.8940578101891481,0.36093097345626324,-0.1849822998046875,-0.5733184814453125,-0.787841796875
20230118-1500,2023-01-18 15:00:20Z,u01, 139,100,movements,wr-su, rt, d,125682.85688787501, -0.20732241258111378, 0.49766260570008375, 0.8237974319604612, 0.10311952978372574, 0.6236779093742371, 0.2157447636127472, -0.1808721125125885, -0.4773729741573334, -0.8598839044570923, 0.013284802436828613, -0.10815256834030151, 0.04504936933517456, 0.2646130250563142, 0.0061647236457685484, 0.8935737436444213,0.36258490799257265,-0.1746826171875,-0.5885772705078125,-0.8009796142578125
20230118-1500,2023-01-18 15:00:20Z,u01, 140,100,movements,wr-su, rt, d,125682.866910875, -0.2024979656328546, 0.498461661483697, 0.8267142906232775, 0.1512220799922943, 0.6157552599906921, 0.24351593852043152, -0.17664478719234467, -0.47807493805885315, -0.8603726029396057, 0.026635587215423584, -0.06945621967315674, 0.021352827548980713, 0.2640739622490755, 0.008868672484481557, 0.8929516901436002,0.364449752128979,-0.15887451171875,-0.570587158203125,-0.82781982421875
20230118-1500,2023-01-18 15:00:20Z,u01, 141,100,movements,wr-su, rt, d,125682.876932875, -0.19785639293470308, 0.499820706370637, 0.829869512989538, 0.22324585914611816, 0.614341139793396, 0.24194344878196716, -0.17252154648303986, -0.4792681932449341, -0.8605453968048096, 0.037267595529556274, -0.019282281398773193, 0.01726841926574707, 0.2638028216651927, 0.011635576864825185, 0.8922250301864096,0.3663430265929492,-0.1413726806640625,-0.5228729248046875,-0.8438873291015625
20230118-1500,2023-01-18 15:00:20Z,u01, 142,100,movements,wr-su, rt, d,125682.886955875, -0.19321524842646648, 0.50184037307509, 0.8331485793038045, 0.269094854593277, 0.6282854676246643, 0.2441629320383072, -0.1683395802974701, -0.48103979229927063, -0.8603851199150085, 0.033848583698272705, 0.012091398239135742, 0.0006591677665710449, 0.26380988419170437, 0.014553201010274372, 0.8914032412792764,0.3682294157330037,-0.1326904296875,-0.479522705078125,-0.8481292724609375
20230118-1500,2023-01-18 15:00:20Z,u01, 143,100,movements,wr-su, rt, d,125682.89697887501, -0.1884422010222632, 0.5039544271937415, 0.8363429107856958, 0.24243679642677307, 0.6269954442977905, 0.2218128889799118, -0.16404014825820923, -0.48289212584495544, -0.8601779341697693, 0.02314046025276184, 0.03197959065437317, -0.010458052158355713, 0.26382475423743196, 0.017536962180119277, 0.890575492209571,0.37008680715257486,-0.1378326416015625,-0.46051025390625,-0.8688812255859375
20230118-1500,2023-01-18 15:00:20Z,u01, 144,100,movements,wr-su, rt, d,125682.907001875, -0.1837070697791795, 0.5057815115615399, 0.8392106483640853, 0.20014604926109314, 0.5927003026008606, 0.205567866563797, -0.1598038226366043, -0.4844912588596344, -0.8600761294364929, 0.01963655650615692, 0.045404285192489624, -0.009751081466674805, 0.2637152902483311, 0.020400394247801313, 0.8898245748229773,0.37182025150902687,-0.141082763671875,-0.44219970703125,-0.8705596923828125
20230118-1500,2023-01-18 15:00:20Z,u01, 145,100,movements,wr-su, rt, d,125682.91702387501, -0.17913736530815358, 0.5070138422929047, 0.841694977150222, 0.10913844406604767, 0.5633149743080139, 0.17095543444156647, -0.1557653695344925, -0.48556891083717346, -0.8602092266082764, 0.012561604380607605, 0.030002444982528687, -0.014058291912078857, 0.2633736389552232, 0.02301529674152973, 0.889193762245651,0.37341529512336696,-0.140228271484375,-0.4450531005859375,-0.872528076171875
20230118-1500,2023-01-18 15:00:20Z,u01, 146,100,movements,wr-su, rt, d,125682.927046875, -0.17438059924058358, 0.5072889111500943, 0.8434325634124985, -0.013226616196334362, 0.5627408027648926, 0.11895108968019485, -0.1516486406326294, -0.4858093559741974, -0.8608089089393616, -0.007576867938041687, 0.022430419921875, 0.0027767419815063477, 0.26258260068345646, 0.025415122370053132, 0.8887846812755444,0.3747883137376482,-0.149261474609375,-0.4598388671875,-0.867156982421875
20230118-1500,2023-01-18 15:00:20Z,u01, 147,100,movements,wr-su, rt, d,125682.93706987501, -0.16906046968467503, 0.5063295567971331, 0.8443982402147584, -0.14005374908447266, 0.5894395112991333, 0.08472517877817154, -0.14714525640010834, -0.4849705994129181, -0.8620625138282776, -0.038691580295562744, -0.005599498748779297, 0.018709301948547363, 0.2611533468032963, 0.027706682551649937, 0.8886258223121218,0.3759993891343351,-0.17236328125,-0.4732208251953125,-0.8492584228515625
20230118-1500,2023-01-18 15:00:20Z,u01, 148,100,movements,wr-su, rt, d,125682.94709287501, -0.16337391388093858, 0.5047325934129947, 0.8451301392821503, -0.14155417680740356, 0.6223077178001404, 0.09939146786928177, -0.14236651360988617, -0.48357340693473816, -0.8636484146118164, -0.06312362849712372, -0.049980729818344116, 0.021210670471191406, 0.2593760614075462, 0.02999749032319288, 0.8885611983628026,0.3772046838623344,-0.19873046875,-0.510955810546875,-0.8409576416015625
20230118-1500,2023-01-18 15:00:20Z,u01, 149,100,movements,wr-su, rt, d,125682.95711487501, -0.1577039320192263, 0.5037367662227636, 0.8464108228908875, 0.005899218376725912, 0.6337435841560364, 0.16007572412490845, -0.1375429481267929, -0.48270151019096375, -0.8649168610572815, -0.060516178607940674, -0.07213863730430603, 0.0011016130447387695, 0.25785054407950686, 0.032475518905608285, 0.8883275933309033,0.37859284388715475,-0.2049713134765625,-0.5523681640625,-0.8514251708984375
20230118-1500,2023-01-18 15:00:20Z,u01, 150,100,movements,wr-su, rt, d,125682.967137875, -0.1524691890338709, 0.5044827651430902, 0.8487889784898297, 0.18612171709537506, 0.6378867030143738, 0.22247013449668884, -0.13295873999595642, -0.48335471749305725, -0.865268886089325, -0.042868345975875854, -0.044507890939712524, -0.02917081117630005, 0.25714247145390645, 0.03526064285901831, 0.8877147806242248,0.38025908544267756,-0.189117431640625,-0.540863037109375,-0.87371826171875
20230118-1500,2023-01-18 15:00:20Z,u01, 151,100,movements,wr-su, rt, d,125682.977160875, -0.147690500535782, 0.5064053032336491, 0.8518008243512399, 0.2566147446632385, 0.6038756966590881, 0.2385455220937729, -0.12868539988994598, -0.48503684997558594, -0.8649736046791077, -0.012611031532287598, -0.03257182240486145, -0.04675424098968506, 0.25701452957430054, 0.038167038506368905, 0.8868635480508672,0.3820470968079525,-0.159332275390625,-0.5195770263671875,-0.911407470703125
20230118-1500,2023-01-18 15:00:20Z,u01, 152,100,movements,wr-su, rt, d,125682.98718387501, -0.14342421458567128, 0.5085331143563663, 0.8550257993409832, 0.23260366916656494, 0.5626422762870789, 0.25497615337371826, -0.1248462125658989, -0.4868965148925781, -0.86449134349823, 0.01405210793018341, -0.05300527811050415, -0.03701317310333252, 0.2570608733266854, 0.04091512230555096, 0.8859502073153971,0.3838463131952695,-0.125213623046875,-0.523773193359375,-0.90618896484375
20230118-1500,2023-01-18 15:00:20Z,u01, 153,100,movements,wr-su, rt, d,125682.99720587501, -0.139448281837474, 0.5102813395044057, 0.858269138395772, 0.1904829740524292, 0.5524412989616394, 0.25528743863105774, -0.12128958106040955, -0.4884227514266968, -0.8641366362571716, 0.02592211216688156, -0.06803479790687561, -0.02030855417251587, 0.2569886953918251, 0.04345690946570732, 0.8850674437441511,0.38564764586073264,-0.0997161865234375,-0.55340576171875,-0.89471435546875
20230118-1500,2023-01-18 15:00:20Z,u01, 154,100,movements,wr-su, rt, d,125683.00722887501, -0.13535388465607703, 0.5117152252268233, 0.8613458739341642, 0.15650902688503265, 0.567197859287262, 0.23347800970077515, -0.11765582114458084, -0.4896734952926636, -0.8639311194419861, 0.017329253256320953, -0.047374874353408813, 0.00885915756225586, 0.2567525156488998, 0.045962898602665114, 0.8842366557735357,0.3874158388838903,-0.095550537109375,-0.55023193359375,-0.8693695068359375
20230118-1500,2023-01-18 15:00:20Z,u01, 155,100,movements,wr-su, rt, d,125683.017251875, -0.13083584977329665, 0.5129013502533003, 0.864046350386625, 0.12976521253585815, 0.5976769328117371, 0.2008640319108963, -0.11367551237344742, -0.4907073378562927, -0.8638774156570435, 0.0011113807559013367, 0.0028990507125854492, 0.04066580533981323, 0.2563274478955014, 0.048554343934321696, 0.883485500579383,0.3890914369220983,-0.1061553955078125,-0.5158233642578125,-0.83978271484375
20230118-1500,2023-01-18 15:00:20Z,u01, 156,100,movements,wr-su, rt, d,125683.027273875, -0.12571250187342545, 0.5137818517273458, 0.8661844939168309, 0.08596127480268478, 0.6327497363090515, 0.14606629312038422, -0.10919387638568878, -0.49147433042526245, -0.864019513130188, -0.013578377664089203, 0.040546566247940063, 0.04894077777862549, 0.25565820836732434, 0.05127504684995352, 0.8828510528216948,0.3906198425074398,-0.1185760498046875,-0.4642181396484375,-0.816162109375
20230118-1500,2023-01-18 15:00:20Z,u01, 157,100,movements,wr-su, rt, d,125683.03729762501, -0.11997869539866651, 0.5144301394360866, 0.867754752510534, 0.07020972669124603, 0.6681165099143982, 0.11297345906496048, -0.1041998341679573, -0.4920388162136078, -0.86431485414505, -0.02260074019432068, 0.0392189621925354, 0.051082491874694824, 0.25477683438667015, 0.05414175658907161, 0.882326100426958,0.3919924724962296,-0.1263580322265625,-0.447998046875,-0.813934326171875
20230118-1500,2023-01-18 15:00:20Z,u01, 158,100,movements,wr-su, rt, d,125683.047320625, -0.11387267901962199, 0.514984501495734, 0.8690747549104246, 0.06385701894760132, 0.6810474395751953, 0.10201188921928406, -0.09888939559459686, -0.49252137541770935, -0.86466383934021, -0.02240276336669922, 0.030286818742752075, 0.034692585468292236, 0.2537823892432985, 0.057118912559760156, 0.8818397724496271,0.3933071373725071,-0.12432861328125,-0.4603118896484375,-0.8200531005859375
20230118-1500,2023-01-18 15:00:20Z,u01, 159,100,movements,wr-su, rt, d,125683.05734362501, -0.10772682874217016, 0.5155950502190867, 0.8703915505323869, 0.07334004342556, 0.6728851199150085, 0.1116783618927002, -0.09354111552238464, -0.4930526316165924, -0.8649561405181885, -0.014155454933643341, 0.01879417896270752, 0.027767479419708252, 0.2527986726569676, 0.06012281622707469, 0.8813366956023123,0.39461837480782236,-0.1151275634765625,-0.463531494140625,-0.83184814453125
20230118-1500,2023-01-18 15:00:20Z,u01, 160,100,movements,wr-su, rt, d,125683.06736562501, -0.10168701981649737, 0.5161841612045243, 0.8717882782561542, 0.05980426073074341, 0.6724598407745361, 0.10853370279073715, -0.08828576654195786, -0.49356508255004883, -0.8652161955833435, -0.01190347969532013, -0.009486734867095947, 0.007840156555175781, 0.2518181453705085, 0.06308335754737901, 0.8808128165161816,0.39595047365119845,-0.10223388671875,-0.4914703369140625,-0.8500823974609375
20230118-1500,2023-01-18 15:00:20Z,u01, 161,100,movements,wr-su, rt, d,125683.07738862501, -0.09559008061713796, 0.5165418815795915, 0.8730680241679969, 0.02782703936100006, 0.6717029809951782, 0.10787340253591537, -0.08299213647842407, -0.4938761591911316, -0.8655626177787781, -0.01541183888912201, -0.020802855491638184, 0.0073168277740478516, 0.25072338620249207, 0.06600351180533397, 0.8803247005297399,0.397252889752655,-0.098968505859375,-0.508636474609375,-0.85833740234375
20230118-1500,2023-01-18 15:00:20Z,u01, 162,100,movements,wr-su, rt, d,125683.087411625, -0.08949147666670845, 0.5167857930633725, 0.8743995593245122, 0.04809475690126419, 0.6795204281806946, 0.1164969801902771, -0.0777011290192604, -0.49408823251724243, -0.8659326434135437, -0.02257966250181198, -0.046072959899902344, 0.00024056434631347656, 0.24957122795678308, 0.06890483039637602, 0.8798281203913179,0.39858349876279203,-0.1005096435546875,-0.5263519287109375,-0.86224365234375
20230118-1500,2023-01-18 15:00:20Z,u01, 163,100,movements,wr-su, rt, d,125683.097434625, -0.08344565487611992, 0.5176930214210694, 0.8759593717598144, 0.14703920483589172, 0.6800764799118042, 0.1361808031797409, -0.07242707908153534, -0.49487677216529846, -0.8659395575523376, -0.022284269332885742, -0.044185757637023926, -0.014217913150787354, 0.24870405294120296, 0.0719480333645073, 0.8792069064919882,0.39995627676467704,-0.097412109375,-0.5453643798828125,-0.8692626953125
20230118-1500,2023-01-18 15:00:20Z,u01, 164,100,movements,wr-su, rt, d,125683.107456625, -0.07765658900482066, 0.5192263336272082, 0.8775897060799407, 0.16381791234016418, 0.6334133744239807, 0.11934110522270203, -0.06735396385192871, -0.4962085783481598, -0.8655868172645569, -0.006513878703117371, -0.007865548133850098, -0.023390233516693115, 0.24815160509680392, 0.07501587868405563, 0.8785025446003696,0.40128139998658935,-0.0872039794921875,-0.5228118896484375,-0.8935546875
20230118-1500,2023-01-18 15:00:21Z,u01, 165,100,movements,wr-su, rt, d,125683.11747962501, -0.07231049473647659, 0.5205942530237484, 0.8790790414879406, 0.120168536901474, 0.5854013562202454, 0.12118979543447495, -0.06267641484737396, -0.49739575386047363, -0.865256667137146, 0.01456540822982788, -0.008906155824661255, -0.0023732781410217285, 0.24761546171948878, 0.07783469596678026, 0.8778504570837802,0.40250084471001824,-0.059326171875,-0.496337890625,-0.8757781982421875
20230118-1500,2023-01-18 15:00:21Z,u01, 166,100,movements,wr-su, rt, d,125683.12750262501, -0.06728241732201552, 0.521560349939685, 0.8805886803239875, 0.08377617597579956, 0.5724232792854309, 0.12199699878692627, -0.058292731642723083, -0.4982336461544037, -0.8650810122489929, 0.020008385181427002, -0.03268072009086609, 0.0039055347442626953, 0.24696251046681683, 0.080430136172205, 0.8772415829699705,0.4037172500409807,-0.0402984619140625,-0.52239990234375,-0.8647613525390625
20230118-1500,2023-01-18 15:00:21Z,u01, 167,100,movements,wr-su, rt, d,125683.13752462501, -0.062241508076891036, 0.5223043692065806, 0.881989067043937, 0.07716149091720581, 0.5728603005409241, 0.11102653294801712, -0.05390814319252968, -0.4988785982131958, -0.864993691444397, 0.010344255715608597, -0.011176973581314087, 0.014453589916229248, 0.24620984123106351, 0.08296914464104908, 0.8766707965639768,0.4049013500494229,-0.038848876953125,-0.5251617431640625,-0.85711669921875
20230118-1500,2023-01-18 15:00:21Z,u01, 168,100,movements,wr-su, rt, d,125683.147547625, -0.05720305370275086, 0.5232138292491373, 0.8833728298143338, 0.112434521317482, 0.5718250870704651, 0.11851134151220322, -0.049523286521434784, -0.49966660141944885, -0.8648009896278381, -0.0013800859451293945, 0.011843055486679077, 0.01920473575592041, 0.24552553821495096, 0.08553774007885384, 0.8760775394175357,0.40606503523335213,-0.048828125,-0.49615478515625,-0.8452911376953125
20230118-1500,2023-01-18 15:00:21Z,u01, 169,100,movements,wr-su, rt, d,125683.157570625, -0.05226321395543053, 0.5245731116533318, 0.8848082068059724, 0.16482912003993988, 0.5596893429756165, 0.11092450469732285, -0.045215196907520294, -0.5008435845375061, -0.8643559813499451, -0.0016140639781951904, 0.03511476516723633, 0.012717247009277344, 0.2450499402847082, 0.08816191157360405, 0.8754197306511997,0.4072079177247528,-0.049224853515625,-0.4783782958984375,-0.8497467041015625
20230118-1500,2023-01-18 15:00:21Z,u01, 170,100,movements,wr-su, rt, d,125683.16759362501, -0.04737632972513099, 0.5263231016446862, 0.8861307026154012, 0.18545396625995636, 0.549254298210144, 0.09775224328041077, -0.04094909876585007, -0.5023574829101562, -0.8636898398399353, -0.0006769150495529175, 0.059883058071136475, 0.008511066436767578, 0.24475530161039866, 0.09082903010346538, 0.8747352794600883,0.4082686051333302,-0.0448150634765625,-0.4520416259765625,-0.85272216796875
20230118-1500,2023-01-18 15:00:21Z,u01, 171,100,movements,wr-su, rt, d,125683.17761562501, -0.0425323089124622, 0.5281543100465933, 0.8873319084460657, 0.17825254797935486, 0.5403319001197815, 0.09425067156553268, -0.0367257259786129, -0.5039399862289429, -0.8629575371742249, 0.003980323672294617, 0.05244767665863037, 0.0062223076820373535, 0.24450593285654149, 0.09347773872181477, 0.8740595312053908,0.40926602230077924,-0.0371246337890625,-0.442779541015625,-0.8563385009765625
20230118-1500,2023-01-18 15:00:21Z,u01, 172,100,movements,wr-su, rt, d,125683.18763862501, -0.037759386020225785, 0.529800348279245, 0.8884526331441323, 0.1473713368177414, 0.520575225353241, 0.08763298392295837, -0.03257513418793678, -0.5053610801696777, -0.8622928857803345, 0.005155041813850403, 0.03009551763534546, 0.004260718822479248, 0.2441903739950597, 0.09604483299017251, 0.8734163870215335,0.41023196855294924,-0.0297698974609375,-0.46466064453125,-0.85791015625
20230118-1500,2023-01-18 15:00:21Z,u01, 173,100,movements,wr-su, rt, d,125683.197661625, -0.03331819502907505, 0.5309433756585953, 0.8895191070395965, 0.08193390816450119, 0.4703136384487152, 0.08780824393033981, -0.02872595749795437, -0.5063470602035522, -0.8618512153625488, 0.008996307849884033, 0.01783686876296997, 0.0009198188781738281, 0.243723258117963, 0.09835330857312395, 0.872850610003938,0.41116602711915,-0.0233306884765625,-0.4821929931640625,-0.8596038818359375
20230118-1500,2023-01-18 15:00:21Z,u01, 174,100,movements,wr-su, rt, d,125683.20768462501, -0.029320524261692432, 0.5312856218966525, 0.8905846269527885, -0.012761703692376614, 0.4397490620613098, 0.09154652059078217, -0.025275256484746933, -0.5066421627998352, -0.861785888671875, 0.00981806218624115, -0.00702977180480957, 0.0004425048828125, 0.24299628467139162, 0.10029890836554002, 0.872393313493785,0.4120957058648296,-0.017486572265625,-0.498992919921875,-0.860198974609375
20230118-1500,2023-01-18 15:00:21Z,u01, 175,100,movements,wr-su, rt, d,125683.217706625, -0.025585029188099268, 0.5308772472122231, 0.8917601418299987, -0.06354352831840515, 0.4278703033924103, 0.11307341605424881, -0.0220611821860075, -0.5062900185585022, -0.862080991268158, 0.0026672184467315674, -0.024074971675872803, -0.0002846717834472656, 0.24198876976593806, 0.10198492700105483, 0.8720090320417446,0.41308680795188946,-0.0164642333984375,-0.523712158203125,-0.8619232177734375
20230118-1500,2023-01-18 15:00:21Z,u01, 176,100,movements,wr-su, rt, d,125683.22772962501, -0.0220705149001581, 0.5300397337015369, 0.8931199939037804, -0.0989217609167099, 0.4095829129219055, 0.12294068932533264, -0.019040606915950775, -0.5055676102638245, -0.8625768423080444, -0.0017724167555570602, -0.03244203329086304, 0.000684201717376709, 0.2408281173489975, 0.10350552624587896, 0.8716441808994357,0.4141555154857019,-0.021453857421875,-0.537506103515625,-0.8621826171875
20230118-1500,2023-01-18 15:00:21Z,u01, 177,100,movements,wr-su, rt, d,125683.237752625, -0.018799425737152067, 0.5291929725343237, 0.8945412594194789, -0.05938524380326271, 0.3877050280570984, 0.12931568920612335, -0.016226986423134804, -0.5048368573188782, -0.8630622625350952, 0.002875508740544319, -0.014526546001434326, 0.00879901647567749, 0.23970781834204127, 0.10492393374640036, 0.8712773032484139,0.41521939501943295,-0.017608642578125,-0.529083251953125,-0.859344482421875
20230118-1500,2023-01-18 15:00:21Z,u01, 178,100,movements,wr-su, rt, d,125683.24777462501, -0.015829930271730484, 0.5288626146522946, 0.896149024038018, -0.012712814845144749, 0.3669512867927551, 0.14503046870231628, -0.013666697777807713, -0.5045516490936279, -0.8632733225822449, 0.008051426149904728, -0.010111987590789795, 0.0045850276947021484, 0.23886207325337086, 0.10634027284631704, 0.870824415965747,0.41629486676043126,-0.008697509765625,-0.5164031982421875,-0.853851318359375
20230118-1500,2023-01-18 15:00:21Z,u01, 179,100,movements,wr-su, rt, d,125683.257797625, -0.01307095982756841, 0.528779943964319, 0.8977425983981044, -0.011179329827427864, 0.34618157148361206, 0.12952208518981934, -0.01128544844686985, -0.5044803023338318, -0.863349437713623, 0.009637461043894291, 0.013574540615081787, 0.008811533451080322, 0.23816589156636214, 0.10771390677748288, 0.8703543034350352,0.4173225055927081,-0.00311279296875,-0.503875732421875,-0.8621063232421875
20230118-1500,2023-01-18 15:00:21Z,u01, 180,100,movements,wr-su, rt, d,125683.26782062501, -0.01043136597949621, 0.5286513892456767, 0.8992449090463464, -0.013215582817792892, 0.3380085825920105, 0.13407102227210999, -0.009007196873426437, -0.50436931848526, -0.8634410500526428, 0.0020186305046081543, 0.012990474700927734, 0.024268746376037598, 0.23747722083279071, 0.10901390669918114, 0.8699124440536781,0.4182976032223529,-0.003570556640625,-0.4866485595703125,-0.844451904296875
20230118-1500,2023-01-18 15:00:21Z,u01, 181,100,movements,wr-su, rt, d,125683.27784362501, -0.007813569038750422, 0.5284669638059402, 0.9007890937164366, -0.028546124696731567, 0.3374599814414978, 0.1283264011144638, -0.006747581530362368, -0.5042100548744202, -0.8635547161102295, -0.0038878321647644043, -0.0022597312927246094, 0.023985624313354492, 0.23676429118980263, 0.11029649436051067, 0.8694671274202699,0.4192902841859739,-0.009307861328125,-0.500732421875,-0.837921142578125
20230118-1500,2023-01-18 15:00:21Z,u01, 182,100,movements,wr-su, rt, d,125683.28786562501, -0.005209776283582451, 0.528108266586799, 0.9021962749961463, -0.046419933438301086, 0.32089298963546753, 0.11789320409297943, -0.004499985836446285, -0.5039002299308777, -0.863750159740448, -0.008317440748214722, 0.00644838809967041, 0.033092200756073, 0.23598400892507168, 0.11151895513503307, 0.8690692566328294,0.42023054335660087,-0.0122222900390625,-0.504974365234375,-0.838287353515625
20230118-1500,2023-01-18 15:00:21Z,u01, 183,100,movements,wr-su, rt, d,125683.297888625, -0.0028150925931496205, 0.5274942929045754, 0.9035004972186755, -0.08507904410362244, 0.2867661714553833, 0.10755696147680283, -0.002432436915114522, -0.5033698081970215, -0.8640676736831665, -0.005486920475959778, 0.006803035736083984, 0.033730149269104004, 0.23514065169118137, 0.11258351509682672, 0.868732540798234,0.4211146853865091,-0.01043701171875,-0.493804931640625,-0.8271636962890625
20230118-1500,2023-01-18 15:00:21Z,u01, 184,100,movements,wr-su, rt, d,125683.307911625, -0.0006638124531842483, 0.5264203234354741, 0.9046547667628317, -0.13725116848945618, 0.2608858346939087, 0.0915399119257927, -0.0005739396438002586, -0.5024415254592896, -0.864611029624939, -0.004369944334030151, -0.0013121962547302246, 0.028383612632751465, 0.23415569103028658, 0.11342666467794782, 0.8684933984908649,0.42192986585240455,-0.0068359375,-0.5017852783203125,-0.8336639404296875
20230118-1500,2023-01-18 15:00:21Z,u01, 185,100,movements,wr-su, rt, d,125683.31793462501, 0.0014573435251181064, 0.5247064230423296, 0.9056087908945893, -0.20620951056480408, 0.25552621483802795, 0.07532148063182831, 0.0012612881837412715, -0.5009589195251465, -0.8654701113700867, -0.012217149138450623, -0.010561466217041016, 0.033927202224731445, 0.23290930619428968, 0.11409731569173456, 0.8683714395074921,0.4226890191680031,-0.0065155029296875,-0.509124755859375,-0.834075927734375
20230118-1500,2023-01-18 15:00:21Z,u01, 186,100,movements,wr-su, rt, d,125683.32795662501, 0.0035271730288072133, 0.5224010695522326, 0.9064520863978295, -0.24839583039283752, 0.24191108345985413, 0.06900100409984589, 0.0030567250214517117, -0.49896240234375, -0.8666182160377502, -0.018727540969848633, -0.015487700700759888, 0.03895103931427002, 0.23142200106149716, 0.11460690499239085, 0.8683435369053121,0.42342474883376774,-0.0155181884765625,-0.5130767822265625,-0.827850341796875
20230118-1500,2023-01-18 15:00:21Z,u01, 187,100,movements,wr-su, rt, d,125683.33797962501, 0.005494160746288811, 0.5201471429107807, 0.9072657915955408, -0.18912479281425476, 0.2304978370666504, 0.06921884417533875, 0.004767512436956167, -0.497007817029953, -0.8677330017089844, -0.01869882643222809, -0.021531641483306885, 0.022823333740234375, 0.22997932530501664, 0.11507832543397553, 0.8683204625968982,0.4241299013656435,-0.0151824951171875,-0.5184478759765625,-0.834991455078125
20230118-1500,2023-01-18 15:00:21Z,u01, 188,100,movements,wr-su, rt, d,125683.348002625, 0.007234513328257844, 0.5188919317212106, 0.9081575500731419, -0.07761157304048538, 0.20364253222942352, 0.08366809785366058, 0.006282174028456211, -0.49591824412345886, -0.8683465123176575, -0.015605330467224121, -0.010231107473373413, 0.004149794578552246, 0.22901315762446306, 0.11567070356971883, 0.868176570173952,0.4247856701928119,-0.010955810546875,-0.515045166015625,-0.85223388671875
20230118-1500,2023-01-18 15:00:21Z,u01, 189,100,movements,wr-su, rt, d,125683.358024625, 0.008592615231000479, 0.5183026539093024, 0.9090877000952274, -0.05122066289186478, 0.1598404496908188, 0.07445773482322693, 0.007463980466127396, -0.4954064190387726, -0.8686292171478271, -0.007174104452133179, 0.010466814041137695, -0.005455195903778076, 0.2284145571119864, 0.11624185138256159, 0.8679684246063955,0.42537685671635755,-0.0061187744140625,-0.4955902099609375,-0.876129150390625
20230118-1500,2023-01-18 15:00:21Z,u01, 190,100,movements,wr-su, rt, d,125683.368047625, 0.00966914114957089, 0.517687098410721, 0.9098464813235753, -0.0819450169801712, 0.13157819211483002, 0.05516020208597183, 0.008402025327086449, -0.4948716163635254, -0.8689254522323608, -0.0014593163505196571, 0.0008683204650878906, 0.004194676876068115, 0.22787384915308478, 0.11666521753317102, 0.8678156528546818,0.42586233497405224,0.0047607421875,-0.4821319580078125,-0.8692626953125
20230118-1500,2023-01-18 15:00:21Z,u01, 191,100,movements,wr-su, rt, d,125683.37807062501, 0.010635712688351963, 0.5165673738400213, 0.9103712486450105, -0.1491580307483673, 0.11651375144720078, 0.0322057269513607, 0.009247787296772003, -0.49389833211898804, -0.869470477104187, -0.006135032512247562, -0.02415284514427185, 0.021676957607269287, 0.22715081247763816, 0.11690707818944612, 0.867777203728622,0.42626043400780994,0.006103515625,-0.509246826171875,-0.8584136962890625
20230118-1500,2023-01-18 15:00:21Z,u01, 192,100,movements,wr-su, rt, d,125683.388093625, 0.011544024491443101, 0.514498588876541, 0.910650110742792, -0.2739604115486145, 0.0914749726653099, 0.012900471687316895, 0.01004930678755045, -0.4920984208583832, -0.8704816102981567, -0.01824331283569336, -0.02569335699081421, 0.05067265033721924, 0.22604186818163596, 0.11689432613137724, 0.8679039793493396,0.4265952942276164,-0.0024566650390625,-0.518585205078125,-0.83404541015625
20230118-1500,2023-01-18 15:00:21Z,u01, 193,100,movements,wr-su, rt, d,125683.39811562501, 0.012261631241495801, 0.5108512800857394, 0.9106432346514904, -0.47293585538864136, 0.04983032867312431, -0.026384618133306503, 0.010695903562009335, -0.48892003297805786, -0.8722630143165588, -0.025313854217529297, -0.035463571548461914, 0.07197010517120361, 0.22430363763215241, 0.11643176850939152, 0.8682834197373814,0.4268670059465006,-0.0117645263671875,-0.519378662109375,-0.809844970703125
20230118-1500,2023-01-18 15:00:21Z,u01, 194,100,movements,wr-su, rt, d,125683.408138625, 0.012848430522191426, 0.5043259725202685, 0.9099843278504813, -0.863495409488678, 0.0030055660754442215, -0.1083894744515419, 0.011248496361076832, -0.4832174479961395, -0.8754281401634216, -0.03166478872299194, -0.05933934450149536, 0.09443753957748413, 0.22137771773282636, 0.11522954956545309, 0.8691345728874946,0.4269884890521933,-0.01690673828125,-0.532196044921875,-0.79193115234375
20230118-1500,2023-01-18 15:00:21Z,u01, 195,100,movements,wr-su, rt, d,125683.41816162501, 0.013388241855861906, 0.4928197167281254, 0.9084273735355153, -1.444922924041748, -0.04130250960588455, -0.18487435579299927, 0.011794719845056534, -0.47311195731163025, -0.880923330783844, -0.05157442390918732, -0.09042569994926453, 0.12498772144317627, 0.21633824424421125, 0.11285425937146447, 0.8707273882536541,0.42696072982298156,-0.028839111328125,-0.5523529052734375,-0.767333984375
20230118-1500,2023-01-18 15:00:21Z,u01, 196,100,movements,wr-su, rt, d,125683.42818462501, 0.013748556482416874, 0.4753793782041952, 0.9063286840927276, -2.032118558883667, -0.07959317415952682, -0.23749735951423645, 0.012223719619214535, -0.4576757848262787, -0.8890351057052612, -0.076600581407547, -0.1513482928276062, 0.123745858669281, 0.208762235041708, 0.10909063133749654, 0.8730593011296778,0.4269485350716293,-0.0525054931640625,-0.5831451416015625,-0.75164794921875
20230118-1500,2023-01-18 15:00:21Z,u01, 197,100,movements,wr-su, rt, d,125683.43820662501, 0.014060058367343455, 0.4525280127717672, 0.9035007955862923, -2.509197950363159, -0.11210557818412781, -0.3372720777988434, 0.012644421309232712, -0.43724048137664795, -0.8992557525634766, -0.0954233855009079, -0.19355788826942444, 0.08374977111816406, 0.19883803918471718, 0.10409398223510966, 0.8760425748207831,0.4268225022022449,-0.07391357421875,-0.6285552978515625,-0.7877044677734375
20230118-1500,2023-01-18 15:00:21Z,u01, 198,100,movements,wr-su, rt, d,125683.448229625, 0.014355416807960158, 0.4253949986914311, 0.899496395376556, -2.8948285579681396, -0.1720605194568634, -0.465893417596817, 0.013075552880764008, -0.41268059611320496, -0.9107819199562073, -0.10604739189147949, -0.17557626962661743, 0.02140820026397705, 0.1870501507012197, 0.09808805805930654, 0.8795812488268873,0.4262955146427134,-0.089874267578125,-0.6154937744140625,-0.8480987548828125
20230118-1500,2023-01-18 15:00:21Z,u01, 199,100,movements,wr-su, rt, d,125683.458252625, 0.01447793911307316, 0.3942007795575625, 0.8943047027053528, -3.3223724365234375, -0.21336588263511658, -0.5670281052589417, 0.013367069885134697, -0.38407039642333984, -0.9232070446014404, -0.11148111522197723, -0.14507392048835754, -0.0631057620048523, 0.173499286527339, 0.09107396999810029, 0.8835881223072026,0.4252947942120366,-0.0964813232421875,-0.555816650390625,-0.9358367919921875
20230118-1500,2023-01-18 15:00:21Z,u01, 200,100,movements,wr-su, rt, d,125683.46827562501, 0.01411381085745547, 0.3593079843801008, 0.8888932308533594, -3.609758138656616, -0.256930410861969, -0.5254049897193909, 0.013212069869041443, -0.3516264855861664, -0.9360471367835999, -0.10830488801002502, -0.1733216643333435, -0.16946732997894287, 0.15833992653715123, 0.08309567807848543, 0.8877537243321632,0.4241663128520255,-0.0980377197265625,-0.519134521484375,-1.0369415283203125
20230118-1500,2023-01-18 15:00:21Z,u01, 201,100,movements,wr-su, rt, d,125683.47829762501, 0.012549806852071825, 0.32276289610380826, 0.8841016546624342, -3.6478283405303955, -0.3764203190803528, -0.47828105092048645, 0.01190145593136549, -0.31718799471855164, -0.9482880234718323, -0.07760585099458694, -0.21735793352127075, -0.2917022109031677, 0.14258418550672208, 0.07433539679292316, 0.8916825756716464,0.42313844164611986,-0.0821075439453125,-0.5372467041015625,-1.1856689453125
20230118-1500,2023-01-18 15:00:21Z,u01, 202,100,movements,wr-su, rt, d,125683.48832062501, 0.009544376230934886, 0.28651126413301337, 0.879636209244249, -3.61466646194458, -0.4686008393764496, -0.45543432235717773, 0.009155167266726494, -0.28260743618011475, -0.9591919779777527, -0.05329888314008713, -0.21879643201828003, -0.3164275288581848, 0.12716643798544514, 0.06505930787908544, 0.8952602373208308,0.4220250937051919,-0.0512237548828125,-0.5173797607421875,-1.263916015625
20230118-1500,2023-01-18 15:00:21Z,u01, 203,100,movements,wr-su, rt, d,125683.498343625, 0.005711104492595421, 0.25049586250485467, 0.8755357700791354, -3.621065855026245, -0.47665610909461975, -0.3892287313938141, 0.005532828625291586, -0.2478843778371811, -0.9687738418579102, -0.05202639847993851, -0.2340187281370163, -0.29234981536865234, 0.11193921942548132, 0.05552204829457176, 0.8984507071052639,0.4209195797334502,-0.0429229736328125,-0.4919586181640625,-1.2750701904296875
20230118-1500,2023-01-18 15:00:21Z,u01, 204,100,movements,wr-su, rt, d,125683.508365625, 0.0018396977536226902, 0.214397733210014, 0.8720751971093833, -3.5916056632995605, -0.4385089874267578, -0.3194914758205414, 0.0017975763184949756, -0.21275898814201355, -0.977103054523468, -0.057232797145843506, -0.22350507974624634, -0.291543185710907, 0.0965962110340289, 0.04601787925242047, 0.9011871066003565,0.4200157631515475,-0.05303955078125,-0.4644622802734375,-1.2592010498046875
20230118-1500,2023-01-18 15:00:21Z,u01, 205,100,movements,wr-su, rt, d,125683.518388625, -0.001766587924082883, 0.1780436266594976, 0.8686958672544525, -3.7057204246520996, -0.40648287534713745, -0.3349928855895996, -0.0017386608524248004, -0.17710447311401367, -0.9841905236244202, -0.05210964381694794, -0.2020459622144699, -0.27235549688339233, 0.08101924589872742, 0.036614495503564, 0.903585130848518,0.4190812168512124,-0.0534210205078125,-0.4052581787109375,-1.2736053466796875
20230118-1500,2023-01-18 15:00:21Z,u01, 206,100,movements,wr-su, rt, d,125683.52841162501, -0.005163007845122746, 0.14051099418400856, 0.8658230991419774, -3.8008928298950195, -0.37764617800712585, -0.2234349399805069, -0.005112101323902607, -0.14004908502101898, -0.9901313781738281, -0.06855736672878265, -0.1471518725156784, -0.13969039916992188, 0.06480194163372348, 0.027111358565589338, 0.905581894887703,0.41831472166501654,-0.0624847412109375,-0.338043212890625,-1.19903564453125
20230118-1500,2023-01-18 15:00:21Z,u01, 207,100,movements,wr-su, rt, d,125683.538434625, -0.008685608943832497, 0.10162197256603324, 0.8634035643294025, -3.9764902591705322, -0.3812260031700134, -0.19492176175117493, -0.008640690706670284, -0.10144715756177902, -0.9948034286499023, -0.030086155980825424, -0.16779421269893646, -0.09610843658447266, 0.047943793651205074, 0.017311562624858615, 0.9071666107304618,0.4176727660840692,-0.063629150390625,-0.2667694091796875,-1.093994140625
20230118-1500,2023-01-18 15:00:21Z,u01, 208,100,movements,wr-su, rt, d,125683.54845662501, -0.012389631355852805, 0.06145637417829202, 0.8613334988769178, -3.990001678466797, -0.39443153142929077, -0.14298425614833832, -0.012365925125777721, -0.06141769513487816, -0.9980355501174927, -0.011041097342967987, -0.23031513392925262, -0.08929049968719482, 0.030502346672586517, 0.007199579875355247, 0.9083206823159296,0.41709872550082644,-0.02471923828125,-0.2727508544921875,-1.0970001220703125
20230118-1500,2023-01-18 15:00:21Z,u01, 209,100,movements,wr-su, rt, d,125683.558479625, -0.016091764633721268, 0.023073029866309016, 0.8596486496879974, -3.6664750576019287, -0.3373892903327942, -0.078867107629776, -0.01608678698539734, -0.023070983588695526, -0.9996044039726257, -0.029338669031858444, -0.34317049384117126, -0.019636929035186768, 0.013839119779983342, -0.0025063227505910924, 0.9089876640828027,0.4165855361955936,-0.02716064453125,-0.32904052734375,-1.04534912109375
20230118-1500,2023-01-18 15:00:21Z,u01, 210,100,movements,wr-su, rt, d,125683.56850262501, -0.01883699029317869, -0.01145605701741984, 0.8585334615109, -3.194796085357666, -0.20149964094161987, -0.004102054983377457, -0.018834641203284264, 0.011455805972218513, -0.9997569918632507, -0.09592675417661667, -0.29072219133377075, -0.006819546222686768, -0.0012881770372842505, -0.010947609738705009, 0.9091934830449615,0.4162279400453959,-0.080535888671875,-0.359100341796875,-1.0156707763671875
20230118-1500,2023-01-18 15:00:21Z,u01, 211,100,movements,wr-su, rt, d,125683.57852562501, -0.02016963243648351, -0.0406357094707009, 0.8586749778882997, -2.668616533279419, -0.06574447453022003, 0.13143877685070038, -0.020151615142822266, 0.040624525398015976, -0.9989712238311768, -0.11136392503976822, -0.11987870931625366, -0.05951565504074097, -0.014274577205014991, -0.01762415828852044, 0.9089225790209404,0.4163477125807644,-0.134368896484375,-0.164276123046875,-1.0102081298828125
20230118-1500,2023-01-18 15:00:21Z,u01, 212,100,movements,wr-su, rt, d,125683.58854762501, -0.02058456413094348, -0.06570137839031984, 0.8597239532063625, -2.3373711109161377, -0.033979617059230804, 0.19400867819786072, -0.020538700744509697, 0.06565412133932114, -0.9976310729980469, -0.04153408855199814, -0.08309495449066162, -0.11861038208007812, -0.025568218138736235, -0.023037894008510265, 0.9083438730381507,0.41680570850356174,-0.1002349853515625,-0.0400390625,-1.10467529296875
20230118-1500,2023-01-18 15:00:21Z,u01, 213,100,movements,wr-su, rt, d,125683.598570625, -0.02103311293036034, -0.08778901256284598, 0.861919169883813, -2.1102006435394287, -0.0942663922905922, 0.33096233010292053, -0.020950570702552795, 0.08767629414796829, -0.9959287047386169, 0.012832855805754662, -0.11993340402841568, -0.08317285776138306, -0.03547711226396593, -0.027875314755510857, 0.9074471713060421,0.4177366639910158,-0.03314208984375,-0.010955810546875,-1.0984649658203125
20230118-1500,2023-01-18 15:00:21Z,u01, 214,100,movements,wr-su, rt, d,125683.608593625, -0.02221656065217837, -0.10903727724646319, 0.8652215938296666, -2.151155710220337, -0.20639187097549438, 0.4062038064002991, -0.02208280749619007, 0.10882134735584259, -0.9938160181045532, 0.04735131934285164, -0.18430660665035248, 0.016154885292053223, -0.044818452595095815, -0.03291352647572596, 0.9062157845168172,0.41914329086010965,0.0158233642578125,-0.06201171875,-1.04168701171875
20230118-1500,2023-01-18 15:00:21Z,u01, 215,100,movements,wr-su, rt, d,125683.61861662501, -0.023993423961785457, -0.13152877612648362, 0.8691996216855608, -2.331338882446289, -0.21893775463104248, 0.4923688769340515, -0.02378389984369278, 0.13114987313747406, -0.991077184677124, 0.023188771679997444, -0.22139038145542145, 0.1121709942817688, -0.05456341471236559, -0.03852567367937129, 0.9046808880460508,0.4208220991655696,0.0190277099609375,-0.0784454345703125,-0.919647216796875
20230118-1500,2023-01-18 15:00:21Z,u01, 216,100,movements,wr-su, rt, d,125683.62863862501, -0.024819020877043272, -0.15589776944979444, 0.8743321511498161, -2.5019006729125977, -0.07584264874458313, 0.6499185562133789, -0.024515511468052864, 0.15526704490184784, -0.9875683188438416, -0.02068105712532997, -0.27308017015457153, 0.16368526220321655, -0.06530349092809137, -0.0441735903263497, 0.9027256551572309,0.42293109961951586,-0.0231781005859375,-0.109100341796875,-0.851837158203125
20230118-1500,2023-01-18 15:00:21Z,u01, 217,100,movements,wr-su, rt, d,125683.63866162501, -0.02348042746867975, -0.1808922266565304, 0.8812278814845109, -2.42581844329834, 0.11043508350849152, 0.8192147016525269, -0.023095188662409782, 0.17990730702877045, -0.9834123849868774, -0.04328057914972305, -0.19855359196662903, 0.19753903150558472, -0.07670392342259832, -0.049094836383663354, 0.9002785580669004,0.4256814111514248,-0.062042236328125,-0.090667724609375,-0.7953338623046875
20230118-1500,2023-01-18 15:00:21Z,u01, 218,100,movements,wr-su, rt, d,125683.648684625, -0.02023256978767018, -0.20358613785774135, 0.8895184667937045, -2.0213723182678223, 0.21017445623874664, 0.8987870216369629, -0.01981337182223797, 0.20218269526958466, -0.9791473746299744, 0.0014570057392120361, 0.0022087395191192627, 0.16560977697372437, -0.08739692103352367, -0.05280236058350395, 0.8975532213893682,0.428919494433286,-0.0526580810546875,0.0873565673828125,-0.795654296875
20230118-1500,2023-01-18 15:00:21Z,u01, 219,100,movements,wr-su, rt, d,125683.658706625, -0.01619956925109303, -0.2200043348828357, 0.8986429031012052, -1.2252529859542847, 0.20229177176952362, 0.9408308267593384, -0.015808410942554474, 0.2182338535785675, -0.9757684469223022, 0.09094264358282089, 0.1949893981218338, 0.08319032192230225, -0.09538375004594869, -0.05493369741951911, 0.894882299948807,0.43251589165119064,0.027496337890625,0.316650390625,-0.8456573486328125
20230118-1500,2023-01-18 15:00:21Z,u01, 220,100,movements,wr-su, rt, d,125683.668729625, -0.012607124408438043, -0.22840075556400546, 0.9079299877638856, -0.4508422613143921, 0.11976519972085953, 0.8782087564468384, -0.0122793884947896, 0.2264201045036316, -0.9739523530006409, 0.13914091885089874, 0.3655751049518585, 0.02300935983657837, -0.09966236580544753, -0.05559894485229402, 0.8925287114559608,0.43631274263831443,0.1111297607421875,0.499725341796875,-0.9359130859375
20230118-1500,2023-01-18 15:00:21Z,u01, 221,100,movements,wr-su, rt, d,125683.67875262501, -0.009263526545688414, -0.2297471879697878, 0.9163828514254599, 0.14824895560741425, 0.19741898775100708, 0.7726699113845825, -0.009019989520311356, 0.2277313619852066, -0.9736822247505188, 0.10823259502649307, 0.5111907720565796, 0.0613592267036438, -0.10076204981792548, -0.05482605923983606, 0.8906987520539804,0.43988295245529957,0.1201019287109375,0.683807373046875,-0.947174072265625
20230118-1500,2023-01-18 15:00:21Z,u01, 222,100,movements,wr-su, rt, d,125683.688775625, -0.004590328825230104, -0.22615642492959892, 0.9239624067005394, 0.5530638098716736, 0.4048893451690674, 0.7027315497398376, -0.004473422653973103, 0.2242334932088852, -0.9745251536369324, 0.045656852424144745, 0.5114842653274536, 0.22440314292907715, -0.09999203594091481, -0.05233546745623951, 0.8893363946606219,0.4431065363736969,0.07244873046875,0.7516021728515625,-0.84234619140625
20230118-1500,2023-01-18 15:00:21Z,u01, 223,100,movements,wr-su, rt, d,125683.69879762501, 0.002094658884964965, -0.21849927266422786, 0.9308821366942696, 0.9700143933296204, 0.6270723938941956, 0.6399111151695251, 0.0020448544528335333, 0.21676482260227203, -0.9762217402458191, -0.01737997680902481, 0.4447951912879944, 0.3521677851676941, -0.09790117247517952, -0.048005239018652154, 0.8883469269306935,0.44603892573005044,0.0086517333984375,0.700408935546875,-0.6723480224609375
20230118-1500,2023-01-18 15:00:21Z,u01, 224,100,movements,wr-su, rt, d,125683.708820625, 0.010464416353668297, -0.206567216192153, 0.9366148718112399, 1.3837255239486694, 0.7908378839492798, 0.47979864478111267, 0.010241763666272163, 0.20510131120681763, -0.9786871671676636, -0.046115219593048096, 0.4147412180900574, 0.3897131681442261, -0.09434749546013886, -0.04189234703319838, 0.8878096846907727,0.4484836942399418,-0.0286865234375,0.6298828125,-0.59625244140625
20230118-1500,2023-01-18 15:00:21Z,u01, 225,100,movements,wr-su, rt, d,125683.71884362501, 0.019365508433630302, -0.19103863686642547, 0.9406065101110039, 1.6900827884674072, 0.8274757862091064, 0.37186482548713684, 0.01901201345026493, 0.18987873196601868, -0.9816234707832336, -0.04563864320516586, 0.43399208784103394, 0.39179497957229614, -0.08938319711329011, -0.03462536773046001, 0.8877442202904827,0.4502465607482055,-0.0347747802734375,0.6256103515625,-0.584442138671875
20230118-1500,2023-01-18 15:00:21Z,u01, 226,100,movements,wr-su, rt, d,125683.72886662501, 0.028304503575025352, -0.17226972378855795, 0.9439856844372143, 2.028928756713867, 0.8753639459609985, 0.4013707935810089, 0.027881823480129242, 0.1714189201593399, -0.9848036170005798, -0.001987699419260025, 0.3570234179496765, 0.36416763067245483, -0.08302514193263663, -0.026552183813993786, 0.8878266962784922,0.4518468571485044,-0.0088348388671875,0.595245361328125,-0.6072235107421875
20230118-1500,2023-01-18 15:00:21Z,u01, 227,100,movements,wr-su, rt, d,125683.73888862501, 0.03774782567306828, -0.14999778046502185, 0.9474566512682375, 2.3971409797668457, 0.91164630651474, 0.4206707775592804, 0.03731510788202286, 0.14943593740463257, -0.9880670309066772, 0.05181143805384636, 0.24276068806648254, 0.35961854457855225, -0.07525080935131419, -0.017429691921765012, 0.8878591028871925,0.45358534642565174,0.06427001953125,0.450347900390625,-0.6259307861328125
20230118-1500,2023-01-18 15:00:21Z,u01, 228,100,movements,wr-su, rt, d,125683.748911625, 0.04711372865609918, -0.1241437786436015, 0.9503619044251685, 2.7071642875671387, 0.8821981549263, 0.36954766511917114, 0.04673384875059128, 0.12382514774799347, -0.9912029504776001, 0.04872509092092514, 0.22572316229343414, 0.3353496789932251, -0.0658997042289165, -0.007467022586673395, 0.8879196442177613,0.45519234816996534,0.096527099609375,0.3675079345703125,-0.634124755859375
20230118-1500,2023-01-18 15:00:21Z,u01, 229,100,movements,wr-su, rt, d,125683.758934625, 0.05624308091789952, -0.09605763948300788, 0.9524697594900053, 2.862804651260376, 0.9071884751319885, 0.34551098942756653, 0.05595428869128227, 0.095909982919693, -0.993816077709198, 0.024047501385211945, 0.17928224802017212, 0.2787434458732605, -0.05552661523352761, 0.002959282595678291, 0.8879702939903451,0.45652683738363914,0.089874267578125,0.3192138671875,-0.6858673095703125
20230118-1500,2023-01-18 15:00:21Z,u01, 230,100,movements,wr-su, rt, d,125683.76895762501, 0.06549285980488424, -0.06657220469472529, 0.9540309865570532, 2.9900684356689453, 0.8967483043670654, 0.3209385275840759, 0.0653010830283165, 0.06652304530143738, -0.9956457614898682, 0.004263699054718018, 0.08955908566713333, 0.19925904273986816, -0.04457288443265181, 0.013797978353884358, 0.8879013789104144,0.4576615603923566,0.06976318359375,0.2208404541015625,-0.7532806396484375
20230118-1500,2023-01-18 15:00:21Z,u01, 231,100,movements,wr-su, rt, d,125683.77897962501, 0.07398655940321336, -0.03581817061986389, 0.9551507986348835, 3.0850532054901123, 0.7751926183700562, 0.32958686351776123, 0.0738716647028923, 0.03581051155924797, -0.9966245889663696, 0.035716913640499115, 0.006776738911867142, 0.13003218173980713, -0.03289005076852756, 0.024615981905212383, 0.8876665259935375,0.4586508463360639,0.0822906494140625,0.092254638671875,-0.832366943359375
20230118-1500,2023-01-18 15:00:21Z,u01, 232,100,movements,wr-su, rt, d,125683.78900262501, 0.08088892948110456, -0.004981359839248308, 0.9557281784033189, 3.0778725147247314, 0.6104279160499573, 0.23559537529945374, 0.08079974353313446, 0.004981339443475008, -0.9967179298400879, 0.11005714535713196, -0.028907153755426407, 0.09376382827758789, -0.02080447638921696, 0.03475945692316024, 0.887296670872602,0.45941664323651066,0.1475677490234375,0.00360107421875,-0.89385986328125
20230118-1500,2023-01-18 15:00:21Z,u01, 233,100,movements,wr-su, rt, d,125683.799025625, 0.08571810039912182, 0.02236400659475829, 0.9551562918746772, 2.0862600803375244, 0.35491353273391724, 0.0904436782002449, 0.08559176325798035, -0.02236214280128479, -0.9960793256759644, 0.16285181045532227, -0.0751415491104126, 0.10958945751190186, -0.009770496311194024, 0.04318430113426617, 0.8870195070272584,0.4596043355996723,0.2266845703125,-0.0509185791015625,-0.9040374755859375
20230118-1500,2023-01-18 15:00:21Z,u01, 234,100,movements,wr-su, rt, d,125683.809047625, 0.0883725159496096, 0.03748300370048451, 0.9542532728358997, 1.0889668464660645, 0.22096052765846252, 0.07906771451234818, 0.08819554001092911, -0.03747422620654106, -0.9953980445861816, 0.1649629771709442, -0.21223588287830353, 0.17388010025024414, -0.003650234700563308, 0.04782951886537059, 0.8869151408965589,0.459435146848031,0.250030517578125,-0.1593170166015625,-0.8274993896484375
20230118-1500,2023-01-18 15:00:21Z,u01, 235,100,movements,wr-su, rt, d,125683.819070625, 0.09077952620607155, 0.04668007334470704, 0.955340179674672, 0.8679311275482178, 0.2621194124221802, 0.2943049669265747, 0.09055614471435547, -0.04666312411427498, -0.9947975277900696, 0.24608322978019714, -0.674299418926239, 0.0005653500556945801, -0.0001490191776049922, 0.05100205357779674, 0.8864253629920692,0.46005315259601215,0.287261962890625,-0.46929931640625,-0.919281005859375
20230118-1500,2023-01-18 15:00:21Z,u01, 236,100,movements,wr-su, rt, d,125683.82909362501, 0.09289879131399068, 0.059216664931555606, 0.9582555813758368, 1.58454430103302, 0.1810743659734726, 0.4993686378002167, 0.09260262548923492, -0.0591820627450943, -0.9939427971839905, 0.256808340549469, -0.4190589487552643, 0.14109855890274048, 0.0048458440838440005, 0.054819075338914794, 0.8854180290012739,0.46152609220242896,0.357391357421875,-0.72265625,-0.944580078125
20230118-1500,2023-01-18 15:00:21Z,u01, 237,100,movements,wr-su, rt, d,125683.83911662501, 0.09438580936124956, 0.07757025515494641, 0.9614233283137009, 1.92049241065979, 0.180033341050148, 0.4331030547618866, 0.09396232664585114, -0.07749248296022415, -0.9925552606582642, 0.22563296556472778, 0.06125710904598236, 0.20294350385665894, 0.012544578733715952, 0.059707537404424534, 0.884167029366841,0.4631700052241415,0.3348541259765625,-0.20806884765625,-0.8148040771484375
20230118-1500,2023-01-18 15:00:21Z,u01, 238,100,movements,wr-su, rt, d,125683.84913862501, 0.09591978358471645, 0.09661793587346755, 0.9632837342402429, 1.8405267000198364, 0.1604098379611969, 0.31800147891044617, 0.09532608836889267, -0.09646768122911453, -0.9907608032226562, 0.17779093980789185, 0.16906896233558655, 0.31395721435546875, 0.020564993999019242, 0.06478187619995686, 0.8831113007933299,0.464214148538927,0.2985687255859375,0.081939697265625,-0.7346343994140625
20230118-1500,2023-01-18 15:00:21Z,u01, 239,100,movements,wr-su, rt, d,125683.859161625, 0.09723615887366284, 0.11473209540859684, 0.9650849485643744, 1.6859558820724487, 0.11681894958019257, 0.3995286822319031, 0.09644473344087601, -0.11448054760694504, -0.9887328147888184, 0.15654593706130981, -0.07924506813287735, 0.27585750818252563, 0.02821359678443758, 0.06955268191527875, 0.8820229095917825,0.465190342209299,0.254730224609375,-0.037261962890625,-0.6639404296875
20230118-1500,2023-01-18 15:00:21Z,u01, 240,100,movements,wr-su, rt, d,125683.86918462501, 0.0967856890151759, 0.1315668288217365, 0.9678853064068456, 1.6542181968688965, -0.1670210212469101, 0.4651196599006653, 0.09579949826002121, -0.1311875879764557, -0.986717939376831, 0.1580609381198883, -0.1399916410446167, 0.15905070304870605, 0.035660826874322926, 0.07327577741309606, 0.8807393689192348,0.4665375429353697,0.2539825439453125,-0.2879638671875,-0.784332275390625
20230118-1500,2023-01-18 15:00:21Z,u01, 241,100,movements,wr-su, rt, d,125683.87920762501, 0.09291873042467363, 0.14859266252608372, 0.971045083299541, 1.6551182270050049, -0.5091040134429932, 0.4776361584663391, 0.09176262468099594, -0.14804644882678986, -0.9847140908241272, 0.17148196697235107, -0.07351119816303253, 0.18648111820220947, 0.0439650898561311, 0.07556466740686153, 0.879430793801713,0.4679299534869063,0.259552001953125,-0.2210540771484375,-0.829071044921875
20230118-1500,2023-01-18 15:00:21Z,u01, 242,100,movements,wr-su, rt, d,125683.88922962501, 0.08656507504864162, 0.16487534291844264, 0.9746089435252728, 1.5085537433624268, -0.6152427196502686, 0.5163894295692444, 0.08528454601764679, -0.1641293615102768, -0.9827451705932617, 0.12266217917203903, -0.1395052969455719, 0.249453604221344, 0.052499428408376736, 0.07662386380344309, 0.8781045156351429,0.4693667990851553,0.2468719482421875,-0.2597808837890625,-0.7591094970703125
20230118-1500,2023-01-18 15:00:21Z,u01, 243,100,movements,wr-su, rt, d,125683.89925262501, 0.08014466950010926, 0.17817068300241493, 0.9793498683720568, 0.9891595840454102, -0.49993374943733215, 0.6825600862503052, 0.0787915289402008, -0.17722950875759125, -0.9810104966163635, 0.008961722254753113, -0.15268079936504364, 0.318519651889801, 0.0596817541866325, 0.07702493630558298, 0.8766042469626346,0.47124319731207576,0.153778076171875,-0.330230712890625,-0.70843505859375
20230118-1500,2023-01-18 15:00:21Z,u01, 244,100,movements,wr-su, rt, d,125683.909275625, 0.07373535264213772, 0.1870300948103015, 0.9878954609692483, 0.6667450666427612, -0.5130447149276733, 1.1211539506912231, 0.0723838359117508, -0.18594160676002502, -0.9798909425735474, -0.08813095837831497, -0.06479083001613617, 0.28505152463912964, 0.06476233983171742, 0.07655296506906098, 0.8743935932547464,0.4747435762880118,0.021209716796875,-0.2899932861328125,-0.65289306640625
20230118-1500,2023-01-18 15:00:21Z,u01, 245,100,movements,wr-su, rt, d,125683.91929862501, 0.0655451011606277, 0.191563365028033, 0.9998403070953652, -0.004985216539353132, -0.6710109114646912, 1.2167924642562866, 0.06430007517337799, -0.19039389491081238, -0.9795997738838196, 0.011932790279388428, -0.2942100167274475, 0.19984513521194458, 0.06825156554178075, 0.07444360779419482, 0.8716269327777741,0.47965225819157764,0.0083465576171875,-0.31298828125,-0.7544097900390625
20230118-1500,2023-01-18 15:00:21Z,u01, 246,100,movements,wr-su, rt, d,125683.929320625, 0.05694589201244988, 0.1882131796849465, 1.0108855949863573, -0.7498335242271423, -0.6139774322509766, 0.8584383130073547, 0.055910006165504456, -0.18710392713546753, -0.9807477593421936, 0.11015135049819946, -0.67140132188797, 0.19946730136871338, 0.06846111175805167, 0.07027936854454409, 0.8694403485824621,0.48419774517755276,0.137603759765625,-0.6885528564453125,-0.764678955078125
20230118-1500,2023-01-18 15:00:21Z,u01, 247,100,movements,wr-su, rt, d,125683.93934362501, 0.04969459863540246, 0.17856291008980624, 1.0181265263537753, -1.2620954513549805, -0.5947536826133728, 0.4897042512893677, 0.048884324729442596, -0.17761552333831787, -0.9828850626945496, 0.07861806452274323, -0.6089903116226196, 0.16715025901794434, 0.06577303396943406, 0.06504902534815557, 0.8683754207363983,0.4872028809665801,0.1647186279296875,-0.931671142578125,-0.8201904296875
