SessionID,LoggingTime,UID,RecNo,Hertz,Activity,MoveType,Wrist,Side,TimeStamp,DMRoll,DMPitch,DMYaw,DMRotX,DMRotY,DMRotZ,DMGrvX,DMGrvY,DMGrvZ,DMUAccelX,DMUAccelY,DMUAccelZ,DMQuatX,DMQuatY,DMQuatW,DMQuatZ,AccelroX,AceelroY,AceelroZ
20230118-1513,2023-01-18 15:13:52Z,u01, 1,100,walking,brisk, rt, d,126128.01160562501, -0.16307511887509643, 0.8834745806221527, 0.07725188714673792, 0.036953750997781754, -0.0007923680823296309, 0.018246127292513847, -0.10300818085670471, -0.7729480266571045, -0.626051664352417, 0.04293433576822281, 0.04106026887893677, -0.03112924098968506, 0.42861575584417133, -0.057120178281306534, 0.9016794698694071,-3.469446951953614e-18,-0.0600738525390625,-0.7318878173828125,-0.6571807861328125
20230118-1513,2023-01-18 15:13:52Z,u01, 2,100,walking,brisk, rt, d,126128.021628625, -0.16336002162912602, 0.8838709746837342, 0.07769871019657569, 0.04699253663420677, 0.014495241455733776, 0.02524198591709137, -0.10313671082258224, -0.7731994986534119, -0.6257199048995972, 0.018694579601287842, 0.02298593521118164, -0.014432072639465332, 0.4288066807716732, -0.05713901850344293, 0.9015875079107575,0.00012250154865207225,-0.084442138671875,-0.750213623046875,-0.6401519775390625
20230118-1513,2023-01-18 15:13:52Z,u01, 3,100,walking,brisk, rt, d,126128.031651625, -0.16346598344841515, 0.8843701131486387, 0.07823114203583133, 0.05497262254357338, 0.04783988371491432, 0.02239448018372059, -0.1031401976943016, -0.7735159397125244, -0.6253281235694885, -0.010324150323867798, 0.00988990068435669, 0.00243377685546875, 0.4290461944123005, -0.057055125535884495, 0.9014788419334955,0.0003172375058587487,-0.11346435546875,-0.7636260986328125,-0.622894287109375
20230118-1513,2023-01-18 15:13:52Z,u01, 4,100,walking,brisk, rt, d,126128.04167462501, -0.16304179314070696, 0.8847812872283365, 0.07862228308819719, 0.03150644153356552, 0.09515120089054108, 0.013000445440411568, -0.10282327234745026, -0.7737764716148376, -0.6250578165054321, -0.02641865611076355, 0.002261638641357422, 0.02601301670074463, 0.42924206117682784, -0.05676558088080912, 0.9014036423249846,0.0005659648674831569,-0.129241943359375,-0.771514892578125,-0.5990447998046875
20230118-1513,2023-01-18 15:13:52Z,u01, 5,100,walking,brisk, rt, d,126128.05169662501, -0.16209108019159083, 0.8849012784023499, 0.07886245366553432, -0.004512467421591282, 0.13230416178703308, 0.014673443511128426, -0.10221399366855621, -0.7738524675369263, -0.6250636577606201, -0.028111308813095093, -0.01257014274597168, 0.03532671928405762, 0.4293024309334117, -0.056281332568278386, 0.9014049999163904,0.0008728598563820418,-0.1303253173828125,-0.7864227294921875,-0.5897369384765625
20230118-1513,2023-01-18 15:13:52Z,u01, 6,100,walking,brisk, rt, d,126128.06171962501, -0.16081048609600315, 0.8846517187957852, 0.07903313945997803, -0.042412180453538895, 0.14858566224575043, 0.011446491815149784, -0.10144437104463577, -0.7736943960189819, -0.6253846883773804, -0.02010713517665863, -0.01689392328262329, 0.04204106330871582, 0.42919439129707126, -0.05567624374619317, 0.9014935951642231,0.001235826033638282,-0.121551513671875,-0.79058837890625,-0.583343505859375
20230118-1513,2023-01-18 15:13:52Z,u01, 7,100,walking,brisk, rt, d,126128.071742625, -0.1592647011145857, 0.8840196603495353, 0.07895149259294386, -0.08008544892072678, 0.14908367395401, -0.0030007315799593925, -0.10055508464574814, -0.7732937932014465, -0.6260234713554382, -0.011871665716171265, -0.008642792701721191, 0.028901219367980957, 0.42890695011744917, -0.05501897501483668, 0.9016702811001707,0.0015587715600780608,-0.1124267578125,-0.7819366455078125,-0.5971221923828125
20230118-1513,2023-01-18 15:13:52Z,u01, 8,100,walking,brisk, rt, d,126128.08176562501, -0.15756918224326205, 0.8832245556722381, 0.07870587488502041, -0.07770005613565445, 0.1487385332584381, -0.002846800722181797, -0.09958996623754501, -0.7727894186973572, -0.6268001794815063, -0.01157030463218689, 0.004250049591064453, 0.0016169548034667969, 0.42854132324219946, -0.05433469070489825, 0.9018850947983249,0.0018465751117738016,-0.1111602783203125,-0.7685394287109375,-0.62518310546875
20230118-1513,2023-01-18 15:13:52Z,u01, 9,100,walking,brisk, rt, d,126128.091787625, -0.15599641267966466, 0.882625317365591, 0.07856555092146023, -0.039734769612550735, 0.14144626259803772, 0.0022253228817135096, -0.09867595881223679, -0.7724089622497559, -0.6274133920669556, -0.010973691940307617, 0.03324270248413086, -0.017728328704833984, 0.428266495370764, -0.053676085543345166, 0.902054414245701,0.0021463970330127743,-0.109649658203125,-0.739166259765625,-0.6451416015625
20230118-1513,2023-01-18 15:13:52Z,u01, 10,100,walking,brisk, rt, d,126128.10181062501, -0.15456524980310535, 0.8824828732491752, 0.07850879687206017, 0.009532378055155277, 0.13967552781105042, -0.002175550675019622, -0.09779486805200577, -0.7723184823989868, -0.6276626586914062, -0.013456955552101135, 0.04819744825363159, -0.035331785678863525, 0.4281992773506914, -0.05304759777396648, 0.9021227752314277,0.0024334159058084677,-0.1112518310546875,-0.72412109375,-0.662994384765625
20230118-1513,2023-01-18 15:13:52Z,u01, 11,100,walking,brisk, rt, d,126128.11183362501, -0.15316953487664864, 0.8827271725429493, 0.07855888257379673, 0.03570025786757469, 0.14337439835071564, 0.0053182123228907585, -0.09688994288444519, -0.7724736332893372, -0.6276120543479919, -0.01108124852180481, 0.05004626512527466, -0.05210602283477783, 0.4283086802251637, -0.052398995959646325, 0.9021078358508615,0.002744341790660503,-0.10797119140625,-0.7224273681640625,-0.679718017578125
20230118-1513,2023-01-18 15:13:52Z,u01, 12,100,walking,brisk, rt, d,126128.121856625, -0.15197997945775735, 0.8831264244750039, 0.07879313049784765, 0.04850606992840767, 0.12828145921230316, 0.007965660654008389, -0.09609659016132355, -0.7727271318435669, -0.6274219751358032, 0.0016752108931541443, 0.039099812507629395, -0.05612605810165405, 0.4284926140249599, -0.05179870936318688, 0.9020540463915704,0.003087710880497068,-0.09442138671875,-0.7336273193359375,-0.6835479736328125
20230118-1513,2023-01-18 15:13:52Z,u01, 13,100,walking,brisk, rt, d,126128.131878625, -0.15102139166082768, 0.8835988447520011, 0.0790024095862241, 0.04776310175657272, 0.09277353435754776, 0.0021212731953710318, -0.09544016420841217, -0.7730268836021423, -0.6271527409553528, 0.011684678494930267, 0.02861166000366211, -0.05361819267272949, 0.42870896886657467, -0.05130549874727426, 0.9019783572023653,0.003367398209557986,-0.0837554931640625,-0.744415283203125,-0.6807708740234375
20230118-1513,2023-01-18 15:13:52Z,u01, 14,100,walking,brisk, rt, d,126128.14190162501, -0.1503389467501822, 0.8840441387561891, 0.07908226801016846, 0.03998986631631851, 0.0559939481317997, -0.005272461101412773, -0.09496059268712997, -0.7733092904090881, -0.6268773674964905, 0.01608791947364807, 0.01836550235748291, -0.0449061393737793, 0.42891004260026605, -0.050965522269157446, 0.9019014747155427,0.0035308487677141107,-0.0788726806640625,-0.75494384765625,-0.671783447265625
20230118-1513,2023-01-18 15:13:52Z,u01, 15,100,walking,brisk, rt, d,126128.15192462501, -0.14990461037482958, 0.8844672700533953, 0.07908960764462751, 0.04369103163480759, 0.031240135431289673, -0.0061821164563298225, -0.09463943541049957, -0.7735775113105774, -0.6265950202941895, 0.013432182371616364, 0.008501887321472168, -0.03824573755264282, 0.42909970061494174, -0.050753770234970796, 0.9018229193942349,0.003609430325001904,-0.081207275390625,-0.76507568359375,-0.6648406982421875
20230118-1513,2023-01-18 15:13:52Z,u01, 16,100,walking,brisk, rt, d,126128.161947625, -0.14968531151730682, 0.884845934320457, 0.07904984362872391, 0.026482485234737396, 0.0061853802762925625, -0.012371835298836231, -0.09445834159851074, -0.7738174200057983, -0.6263260841369629, 0.008856534957885742, 0.01359403133392334, -0.027162134647369385, 0.42926852885173306, -0.05065061850058191, 0.9017483570314725,0.0036225763617371808,-0.085601806640625,-0.760223388671875,-0.6534881591796875
20230118-1513,2023-01-18 15:13:52Z,u01, 17,100,walking,brisk, rt, d,126128.17196962501, -0.16095232310008142, 0.8326214169422644, 0.08740880764261905, -0.008242053911089897, -0.014377686195075512, -0.03336942195892334, -0.10784406960010529, -0.7396979928016663, -0.6642414331436157, 0.020106039941310883, -0.02110522985458374, 0.018458843231201172, 0.4059075757253102, -0.055842053964136704, 0.9121769354202548,0.0073519198467227945,-0.087738037109375,-0.76080322265625,-0.645782470703125
20230118-1513,2023-01-18 15:13:52Z,u01, 18,100,walking,brisk, rt, d,126128.181992625, -0.16311834626723556, 0.8269186483761245, 0.08857752618886196, -0.04874100908637047, -0.030663980171084404, -0.037008363753557205, -0.10996582359075546, -0.7358483672142029, -0.668157696723938, 0.02111390233039856, -0.034399986267089844, 0.01584446430206299, 0.40335436506273753, -0.05680140379355781, 0.9132466418095859,0.007708410281785857,-0.0888519287109375,-0.7702484130859375,-0.652313232421875
20230118-1513,2023-01-18 15:13:52Z,u01, 19,100,walking,brisk, rt, d,126128.19201562501, -0.1608542990018203, 0.8202835277533449, 0.0863184486672791, -0.085807666182518, -0.04748663678765297, -0.03696215897798538, -0.10923238843679428, -0.7313392162322998, -0.6732096672058105, 0.019648052752017975, -0.04189985990524292, 0.011771619319915771, 0.40025916135763806, -0.05646044133515475, 0.9146308346315124,0.007434520880625874,-0.0895843505859375,-0.7732391357421875,-0.66143798828125
20230118-1513,2023-01-18 15:13:52Z,u01, 20,100,walking,brisk, rt, d,126128.20203862501, -0.15413715750738433, 0.81821464266345, 0.08066303723335998, -0.11973686516284943, -0.058058321475982666, -0.0400245301425457, -0.10493997484445572, -0.7299266457557678, -0.6754217743873596, 0.01399761438369751, -0.03362303972244263, 0.01077944040298462, 0.3991354087271469, -0.054589640490436256, 0.9152438578516027,0.006281467493951514,-0.0909423828125,-0.7635498046875,-0.664642333984375
20230118-1513,2023-01-18 15:13:52Z,u01, 21,100,walking,brisk, rt, d,126128.21206062501, -0.1456525067541004, 0.819434975156156, 0.0736499264198262, -0.13943329453468323, -0.052330393344163895, -0.044070880860090256, -0.09907621145248413, -0.7307602167129517, -0.6754060983657837, 0.005692429840564728, -0.031095802783966064, 0.007391571998596191, 0.39948207829172455, -0.05206735056437985, 0.9152490978489084,0.004714878088436004,-0.0933837890625,-0.7618560791015625,-0.6680145263671875
20230118-1513,2023-01-18 15:13:52Z,u01, 22,100,walking,brisk, rt, d,126128.222083625, -0.13665421206553344, 0.8254330156981922, 0.06627482981834508, -0.14059363305568695, -0.050295472145080566, -0.041181351989507675, -0.09239599853754044, -0.734841525554657, -0.6719158887863159, 0.0005380958318710327, -0.024817228317260742, 0.0017345547676086426, 0.4020156667279757, -0.04924901773917674, 0.9143027700065851,0.0029090545679457645,-0.09185791015625,-0.7596588134765625,-0.6701812744140625
20230118-1513,2023-01-18 15:13:52Z,u01, 23,100,walking,brisk, rt, d,126128.232106625, -0.13292760961685293, 0.8317094979655019, 0.06278101819234921, -0.11515939235687256, -0.05442150682210922, -0.03572181984782219, -0.08927834033966064, -0.739084005355835, -0.667670726776123, 0.0007163360714912415, -0.015112161636352539, -0.004189014434814453, 0.4047882719173906, -0.04807369213279768, 0.913144031119381,0.001830499190171156,-0.08856201171875,-0.7541961669921875,-0.6718597412109375
20230118-1513,2023-01-18 15:13:52Z,u01, 24,100,walking,brisk, rt, d,126128.24212962501, -0.13259868095286498, 0.8364073407281631, 0.06178330459795281, -0.07182630151510239, -0.056187983602285385, -0.04215095564723015, -0.08859868347644806, -0.7422403693199158, -0.6642510890960693, 0.003927670419216156, -0.0030599236488342285, -0.0052893757820129395, 0.40690395371086957, -0.04799624917719405, 0.9122082212896493,0.0012700024183072318,-0.0846710205078125,-0.74530029296875,-0.6695404052734375
20230118-1513,2023-01-18 15:13:52Z,u01, 25,100,walking,brisk, rt, d,126128.25215162501, -0.13331072226614105, 0.8407488541172036, 0.061570487095363086, -0.027836831286549568, -0.055938709527254105, -0.040694501250982285, -0.08864248543977737, -0.7451427578926086, -0.6609877347946167, 0.008671186864376068, 0.002589106559753418, -0.002540767192840576, 0.40887477806250316, -0.048244579594052824, 0.9113139598827127,0.0008689345763013799,-0.0799713134765625,-0.7425537109375,-0.6635284423828125
20230118-1513,2023-01-18 15:13:52Z,u01, 26,100,walking,brisk, rt, d,126128.26217462501, -0.13400899850323678, 0.8442392690448687, 0.06134375095329244, 0.009899361990392208, -0.0674118772149086, -0.04300905391573906, -0.08875598758459091, -0.747465968132019, -0.6583441495895386, 0.01569691300392151, -0.0012980103492736816, 0.0017737150192260742, 0.4104563770070843, -0.0485126136432216, 0.9105887874160741,0.0004944527524826277,-0.07305908203125,-0.7487640380859375,-0.6565704345703125
20230118-1513,2023-01-18 15:13:52Z,u01, 27,100,walking,brisk, rt, d,126128.272197625, -0.1345381013878525, 0.8464159894311082, 0.060887090874226585, 0.026868777349591255, -0.08437621593475342, -0.043246474117040634, -0.08888585865497589, -0.7489101886749268, -0.6566832661628723, 0.020206056535243988, -0.009817779064178467, 0.005682229995727539, 0.41143431615718984, -0.04878708814340161, 0.910132799785211,9.770712610199586e-05,-0.0686798095703125,-0.75872802734375,-0.6510009765625
20230118-1513,2023-01-18 15:13:52Z,u01, 28,100,walking,brisk, rt, d,126128.28222062501, -0.1351209246200308, 0.847166072741143, 0.06038306415856628, 0.026739880442619324, -0.09082052856683731, -0.04993819817900658, -0.08919287472963333, -0.7494070529937744, -0.6560745239257812, 0.021459117531776428, -0.01710289716720581, 0.017066895961761475, 0.41176263842446087, -0.04913529948979094, 0.909965515311279,-0.00027926641787330217,-0.0677337646484375,-0.766510009765625,-0.639007568359375
20230118-1513,2023-01-18 15:13:52Z,u01, 29,100,walking,brisk, rt, d,126128.292242625, -0.1358484271661162, 0.8472810319572167, 0.05993828939945568, 0.00565200112760067, -0.08319110423326492, -0.05431161820888519, -0.0896584689617157, -0.7494831681251526, -0.6559240221977234, 0.019895292818546295, -0.028470873832702637, 0.021356701850891113, 0.4118037338473201, -0.04955469914872407, 0.9099239451076279,-0.000635671477944872,-0.06976318359375,-0.7779541015625,-0.6345672607421875
20230118-1513,2023-01-18 15:13:52Z,u01, 30,100,walking,brisk, rt, d,126128.30226562501, -0.13606381657085706, 0.8469419415448037, 0.05919416070010808, -0.005219821818172932, -0.06959620118141174, -0.0462678037583828, -0.08983422815799713, -0.7492586374282837, -0.6561565399169922, 0.01781274378299713, -0.03426486253738403, 0.015088975429534912, 0.41163111971035526, -0.049815202625787224, 0.9099875641216767,-0.0010060029621848932,-0.072021484375,-0.7835235595703125,-0.6410675048828125
20230118-1513,2023-01-18 15:13:52Z,u01, 31,100,walking,brisk, rt, d,126128.312288625, -0.13577626302727766, 0.8465105213382766, 0.05797456511209364, 0.06774849444627762, -0.1086203008890152, -0.07974302023649216, -0.08968928456306458, -0.7489728331565857, -0.6565025448799133, 0.016630209982395172, -0.02653980255126953, 0.010109663009643555, 0.4114049427546992, -0.04994706634578014, 0.9100819346177862,-0.0014858362004021124,-0.07305908203125,-0.7755126953125,-0.646392822265625
20230118-1513,2023-01-18 15:13:52Z,u01, 32,100,walking,brisk, rt, d,126128.322311625, -0.13521089532737393, 0.8460445179429221, 0.0560525350286763, 0.00811072625219822, -0.14138303697109222, -0.0897490531206131, -0.08936513215303421, -0.7486639618873596, -0.6568987965583801, 0.038751743733882904, -0.02549058198928833, 0.005501091480255127, 0.4111457532960985, -0.05009754658199717, 0.9101891832608368,-0.002227139707294608,-0.0506134033203125,-0.7741546630859375,-0.651397705078125
20230118-1513,2023-01-18 15:13:52Z,u01, 33,100,walking,brisk, rt, d,126128.332333625, -0.13434535625557656, 0.845488159065868, 0.05385291827505618, -0.017218654975295067, -0.12134435027837753, -0.07977516949176788, -0.08885230869054794, -0.7482950091362, -0.6573886275291443, 0.02915993332862854, -0.022334814071655273, 0.015466570854187012, 0.4108389325203579, -0.05017026462449285, 0.9103214437136706,-0.0030301725069379754,-0.0596923828125,-0.7706298828125,-0.6419219970703125
20230118-1513,2023-01-18 15:13:52Z,u01, 34,100,walking,brisk, rt, d,126128.34235662501, -0.13285936820431257, 0.845315887744992, 0.05153139261928309, -0.06080874055624008, -0.0725853368639946, -0.04403367638587952, -0.08789240568876266, -0.7481807470321655, -0.6576476693153381, 0.007799036800861359, -0.027545511722564697, 0.024789392948150635, 0.4107050862458077, -0.04997510976568749, 0.9103897189145552,-0.0037755133006806794,-0.0800933837890625,-0.775726318359375,-0.6328582763671875
20230118-1513,2023-01-18 15:13:52Z,u01, 35,100,walking,brisk, rt, d,126128.35237962501, -0.13108282092916632, 0.8462472432188939, 0.04946254818908803, 0.07326550036668777, -0.05879122018814087, -0.061846572905778885, -0.08663281798362732, -0.7487983703613281, -0.657111644744873, -0.006888300180435181, -0.0209922194480896, 0.030021190643310547, 0.4110804748376638, -0.04956824062570081, 0.9102398420962282,-0.004384980264251465,-0.0935211181640625,-0.7697906494140625,-0.6270904541015625
20230118-1513,2023-01-18 15:13:52Z,u01, 36,100,walking,brisk, rt, d,126128.362402625, -0.1299649824061256, 0.8489485846282954, 0.047475713187063284, 0.10638456791639328, -0.14931340515613556, -0.07181106507778168, -0.08563575148582458, -0.7505860924720764, -0.6551999449729919, 0.03145180642604828, -0.006387054920196533, 0.022082269191741943, 0.41226132750317646, -0.049402617810822134, 0.909710566908131,-0.005152577849938177,-0.0541839599609375,-0.7569732666015625,-0.63311767578125
20230118-1513,2023-01-18 15:13:52Z,u01, 37,100,walking,brisk, rt, d,126128.372424625, -0.13009296782669455, 0.8524665628577739, 0.04592531325688, 0.147610604763031, -0.1928371787071228, -0.05705571174621582, -0.08537653088569641, -0.7529060244560242, -0.6525667309761047, 0.053592488169670105, -0.0017936229705810547, 0.028451740741729736, 0.413819871136087, -0.04969652301099418, 0.9089814362706237,-0.0060049109499239126,-0.0317840576171875,-0.75469970703125,-0.624114990234375
20230118-1513,2023-01-18 15:13:52Z,u01, 38,100,walking,brisk, rt, d,126128.382447625, -0.1306532262645538, 0.8555720308092644, 0.04481912034888521, 0.1173911839723587, -0.15715055167675018, -0.031089622527360916, -0.0854370966553688, -0.7549461722373962, -0.6501975059509277, 0.026782318949699402, -0.020810604095458984, 0.03641265630722046, 0.4151994615020982, -0.05010645502724856, 0.9083245374264448,-0.006730193212263393,-0.05865478515625,-0.7757568359375,-0.6137847900390625
20230118-1513,2023-01-18 15:13:52Z,u01, 39,100,walking,brisk, rt, d,126128.39247062501, -0.13074511633679908, 0.85747048064976, 0.04387643563505998, 0.07381066679954529, -0.09102080017328262, -0.01950458064675331, -0.08530984818935394, -0.75618976354599, -0.6487675309181213, -0.002931728959083557, -0.019155025482177734, 0.04001808166503906, 0.41603631816854014, -0.050299233604312446, 0.907926997848156,-0.007242418888918628,-0.0882415771484375,-0.7753448486328125,-0.6087493896484375
20230118-1513,2023-01-18 15:13:52Z,u01, 40,100,walking,brisk, rt, d,126128.402493625, -0.12834786928279962, 0.8586433876264987, 0.04160885388470789, 0.05778402462601662, -0.038371700793504715, 0.00824342854321003, -0.08364076167345047, -0.7569567561149597, -0.6480900645256042, -0.012245453894138336, -0.020127534866333008, 0.04172104597091675, 0.4165204095560602, -0.04965589864568578, 0.9077357001782932,-0.007812464040621274,-0.09588623046875,-0.7770843505859375,-0.6063690185546875
20230118-1513,2023-01-18 15:13:52Z,u01, 41,100,walking,brisk, rt, d,126128.41251562501, -0.12704315349037093, 0.859977035688047, 0.04076196119368569, 0.07810896635055542, 0.007850654423236847, 0.057025883346796036, -0.08266714215278625, -0.7578275799751282, -0.6471967101097107, -0.007588595151901245, -0.01629650592803955, 0.03681457042694092, 0.41710910244963045, -0.04921013222386668, 0.9074882798892275,-0.007969254157092513,-0.0902557373046875,-0.7741241455078125,-0.610382080078125
20230118-1513,2023-01-18 15:13:53Z,u01, 42,100,walking,brisk, rt, d,126128.422538625, -0.1279630573064675, 0.861952493736973, 0.042556826083786484, 0.08909237384796143, 0.09889187663793564, 0.13198241591453552, -0.0830712541937828, -0.7591149806976318, -0.6456342935562134, -0.009763211011886597, -0.014780282974243164, 0.029316484928131104, 0.4180447899864499, -0.049207777479589446, 0.9070624447669424,-0.007412844106473823,-0.09283447265625,-0.773895263671875,-0.6163177490234375
20230118-1513,2023-01-18 15:13:53Z,u01, 43,100,walking,brisk, rt, d,126128.43256162501, -0.12949808305373664, 0.8634535950671316, 0.0457802171102861, 0.028206996619701385, 0.1847793608903885, 0.13957205414772034, -0.08391497284173965, -0.7600913047790527, -0.6443753242492676, -0.02327801287174225, -0.03621906042098999, 0.0358852744102478, 0.41879860507849676, -0.04919425827662791, 0.9067236170758649,-0.006323112725494649,-0.1071929931640625,-0.7963104248046875,-0.608489990234375
20230118-1513,2023-01-18 15:13:53Z,u01, 44,100,walking,brisk, rt, d,126128.44258462501, -0.1269104487898281, 0.8637115906110971, 0.046152542216606626, 0.009864208288490772, 0.18810831010341644, 0.13214954733848572, -0.08222245424985886, -0.7602589130401611, -0.6443957090377808, -0.01145123690366745, -0.006769835948944092, 0.03137385845184326, 0.41893220999769026, -0.04793699774851595, 0.9067338108869892,-0.005621123717452211,-0.0936737060546875,-0.76702880859375,-0.6130218505859375
20230118-1513,2023-01-18 15:13:53Z,u01, 45,100,walking,brisk, rt, d,126128.45260662501, -0.12283420203931261, 0.8641605725854087, 0.04499080491420372, 0.014025131240487099, 0.1271786391735077, 0.08010254055261612, -0.07955324649810791, -0.7605504989624023, -0.6443867683410645, 0.017663605511188507, 0.02577883005142212, 0.023445606231689453, 0.41911919690115973, -0.04632185860568988, 0.9067333386451898,-0.005308636930729298,-0.0618896484375,-0.734771728515625,-0.620941162109375
20230118-1513,2023-01-18 15:13:53Z,u01, 46,100,walking,brisk, rt, d,126128.462629625, -0.12192220283863116, 0.8658889750300508, 0.04521926675800257, 0.056239161640405655, 0.022817887365818024, 0.022788655012845993, -0.07880552858114243, -0.7616716027259827, -0.6431532502174377, 0.03652343899011612, 0.03349173069000244, 0.009425163269042969, 0.41990931705245654, -0.04582074090740722, 0.9063944796549004,-0.00506990732437718,-0.0422821044921875,-0.728179931640625,-0.63372802734375
20230118-1513,2023-01-18 15:13:53Z,u01, 47,100,walking,brisk, rt, d,126128.472652625, -0.12345007775877699, 0.8681342517398876, 0.046427061012463106, 0.09862934798002243, -0.02792278863489628, -0.0044192103669047356, -0.07957731187343597, -0.7631245255470276, -0.6413333415985107, 0.03486906737089157, 0.029253065586090088, 0.006857633590698242, 0.4209492264567296, -0.0462068834140141, 0.9058932388407546,-0.004917093256247961,-0.044708251953125,-0.7338714599609375,-0.6344757080078125
20230118-1513,2023-01-18 15:13:53Z,u01, 48,100,walking,brisk, rt, d,126128.48267562501, -0.1253264943473655, 0.8704411288899437, 0.04785056602648083, 0.061014324426651, 0.02056458592414856, -0.00694282166659832, -0.08056031167507172, -0.7646133303642273, -0.6394345164299011, 0.004632577300071716, 0.00725865364074707, 0.013442635536193848, 0.42202094928151934, -0.046701775001402386, 0.9053699506524511,-0.004744383028900789,-0.075927734375,-0.757354736328125,-0.6259918212890625
20230118-1513,2023-01-18 15:13:53Z,u01, 49,100,walking,brisk, rt, d,126128.49269762501, -0.12587178479732272, 0.8718004397112344, 0.04863412042851057, 0.01795603334903717, 0.07842361927032471, -0.0052945916540920734, -0.08077841997146606, -0.7654886841773987, -0.6383587718009949, -0.01858680695295334, -0.006148219108581543, 0.023170113563537598, 0.4226523514198614, -0.04675029310215033, 0.905073870765692,-0.004550447701946663,-0.099365234375,-0.771636962890625,-0.6151885986328125
20230118-1513,2023-01-18 15:13:53Z,u01, 50,100,walking,brisk, rt, d,126128.50272062501, -0.1260516261105956, 0.8726687785282341, 0.04944736158664836, 0.014153571799397469, 0.09175886958837509, 0.0033636114094406366, -0.08080963790416718, -0.7660471200942993, -0.6376846432685852, -0.013581223785877228, -0.0015767216682434082, 0.01898646354675293, 0.42306325068639516, -0.04663855525306375, 0.904889172584835,-0.004249730468892394,-0.094390869140625,-0.7676239013671875,-0.6186981201171875
20230118-1513,2023-01-18 15:13:53Z,u01, 51,100,walking,brisk, rt, d,126128.512743625, -0.12717208600483648, 0.873975048728908, 0.0509405856627872, -0.004701970145106316, 0.07013027369976044, -0.00877291988581419, -0.08139710873365402, -0.7668861150741577, -0.6366006135940552, 0.003256857395172119, 0.00571674108505249, 0.0080605149269104, 0.4236858930751072, -0.04679702921300717, 0.9045914007632718,-0.0038557751406797063,-0.0781402587890625,-0.76116943359375,-0.6285400390625
20230118-1513,2023-01-18 15:13:53Z,u01, 52,100,walking,brisk, rt, d,126128.52276662501, -0.1273523687626588, 0.8743332234292375, 0.05130755898716747, -0.030733570456504822, 0.027593733742833138, -0.03804159164428711, -0.08147696405649185, -0.7671159505844116, -0.6363133192062378, 0.016215138137340546, 0.01632249355316162, 0.005499660968780518, 0.4238559452233422, -0.04679185656643201, 0.9045123838085711,-0.0037402571106033254,-0.0652618408203125,-0.75079345703125,-0.6308135986328125
20230118-1513,2023-01-18 15:13:53Z,u01, 53,100,walking,brisk, rt, d,126128.532788625, -0.12571265170426818, 0.8740098793053338, 0.04969553550100573, 0.011800212785601616, -0.037050507962703705, -0.05711933225393295, -0.08046457916498184, -0.7669084668159485, -0.6366921067237854, 0.02365611493587494, 0.01825129985809326, -0.000270843505859375, 0.4236755829111614, -0.046399818412815506, 0.9046154644951412,-0.0041109363252997445,-0.0568084716796875,-0.7486572265625,-0.636962890625
20230118-1513,2023-01-18 15:13:53Z,u01, 54,100,walking,brisk, rt, d,126128.54281162501, -0.12338595959482983, 0.87379325023611, 0.04715162471525965, 0.056376732885837555, -0.07173179090023041, -0.05435071140527725, -0.07900342345237732, -0.7667694091796875, -0.6370424628257751, 0.023095227777957916, 0.0029450058937072754, 0.0005830526351928711, 0.42352420146457687, -0.04589140618286959, 0.9047090853106721,-0.004761620522796429,-0.055908203125,-0.763824462890625,-0.6364593505859375
20230118-1513,2023-01-18 15:13:53Z,u01, 55,100,walking,brisk, rt, d,126128.552834625, -0.12138844570503121, 0.8738689609069771, 0.044776426422514524, 0.07123181223869324, -0.060035716742277145, -0.061361853033304214, -0.07772372663021088, -0.7668180465698242, -0.6371413469314575, 0.0033829137682914734, -0.004086434841156006, 0.010737478733062744, 0.4235092491118501, -0.045489013136907085, 0.9047326889063546,-0.0054155438912118214,-0.0743408203125,-0.770904541015625,-0.62640380859375
20230118-1513,2023-01-18 15:13:53Z,u01, 56,100,walking,brisk, rt, d,126128.562857625, -0.12121400505019715, 0.8747371296798799, 0.044014246405765796, 0.06835506111383438, -0.02275172807276249, -0.0535057969391346, -0.0775320753455162, -0.7673749923706055, -0.636493980884552, -0.013166166841983795, -0.010075628757476807, 0.013782680034637451, 0.4238844904824309, -0.04555172144563769, 0.9045518733608143,-0.005751228978256095,-0.0906982421875,-0.7774505615234375,-0.622711181640625
20230118-1513,2023-01-18 15:13:53Z,u01, 57,100,walking,brisk, rt, d,126128.572879625, -0.12220017468351956, 0.87591107639944, 0.04440310848627884, 0.029258832335472107, 0.003297714749351144, -0.06023741140961647, -0.07804985344409943, -0.7681272029876709, -0.6355224847793579, -0.010374829173088074, -0.0047152042388916016, 0.01828920841217041, 0.42442079359359786, -0.04588835694310662, 0.9042827735662767,-0.005822347614349271,-0.0884246826171875,-0.7728424072265625,-0.6172332763671875
20230118-1513,2023-01-18 15:13:53Z,u01, 58,100,walking,brisk, rt, d,126128.58290262501, -0.12259363284005352, 0.8765127185555022, 0.04443450552707833, -0.0007552602328360081, 0.01509152352809906, -0.041852280497550964, -0.07824335992336273, -0.7685122489929199, -0.6350328922271729, 0.0005151033401489258, -0.00034755468368530273, 0.014595270156860352, 0.42469204659091425, -0.046045737643476845, 0.9041467927796477,-0.005911164155682824,-0.077728271484375,-0.76885986328125,-0.6204376220703125
20230118-1513,2023-01-18 15:13:53Z,u01, 59,100,walking,brisk, rt, d,126128.59292562501, -0.12197493306147446, 0.8762612830341738, 0.0440699751464187, -0.061471354216337204, 0.057964690029621124, -0.008917049504816532, -0.07787396758794785, -0.7683513760566711, -0.6352730393409729, -6.791949272155762e-05, -0.004170596599578857, 0.008686065673828125, 0.4245719476999287, -0.04584919600149665, 0.9042130662588217,-0.0059364684599211535,-0.07794189453125,-0.77252197265625,-0.6265869140625
20230118-1513,2023-01-18 15:13:53Z,u01, 60,100,walking,brisk, rt, d,126128.602948625, -0.12059190706242374, 0.8754678658237438, 0.043601821555936685, -0.042939748615026474, 0.09091384708881378, 0.03222319483757019, -0.07706860452890396, -0.7678433060646057, -0.6359851360321045, -0.010745704174041748, -0.005700886249542236, 0.011915862560272217, 0.4242070459328855, -0.045341245117371726, 0.9044106140764036,-0.005829228160267385,-0.0878143310546875,-0.7735443115234375,-0.6240692138671875
20230118-1513,2023-01-18 15:13:53Z,u01, 61,100,walking,brisk, rt, d,126128.612970625, -0.11873714199580632, 0.8746192995695576, 0.043162302284943665, -0.028236323967576027, 0.09112557023763657, 0.0539226308465004, -0.07596602290868759, -0.7672994136810303, -0.6367736458778381, -0.007469020783901215, -0.005878567695617676, 0.006860315799713135, 0.4238191782259529, -0.044614658516633, 0.9046299312837525,-0.00560791796982037,-0.08343505859375,-0.7731781005859375,-0.629913330078125
20230118-1513,2023-01-18 15:13:53Z,u01, 62,100,walking,brisk, rt, d,126128.62299337501, -0.11708863115924151, 0.8742404174302167, 0.04282041065860945, -0.015786578878760338, 0.07477402687072754, 0.03487863391637802, -0.07495015114545822, -0.767056405544281, -0.6371867060661316, 0.0008687451481819153, 0.0031557679176330566, 0.012812316417694092, 0.4236449684547752, -0.04394980787980543, 0.9047453176401252,-0.005401476586280492,-0.0740814208984375,-0.7639007568359375,-0.6243743896484375
20230118-1513,2023-01-18 15:13:53Z,u01, 63,100,walking,brisk, rt, d,126128.63301637501, -0.11691261729732272, 0.8746873439413313, 0.04321333142450788, 0.027001097798347473, 0.03134160116314888, 0.007092063315212727, -0.07479799538850784, -0.7673430442810059, -0.6368593573570251, 0.008391760289669037, 0.01287233829498291, 0.0048860907554626465, 0.4238559945387156, -0.04377706111633718, 0.9046560084967324,-0.005200312305392609,-0.06640625,-0.7544708251953125,-0.6319732666015625
20230118-1513,2023-01-18 15:13:53Z,u01, 64,100,walking,brisk, rt, d,126128.643039375, -0.11797176512755081, 0.8757077084616123, 0.04421401086054154, 0.04701581969857216, 0.011254440993070602, -0.004272444173693657, -0.07538028806447983, -0.7679969668388367, -0.6360018849372864, 0.012636162340641022, 0.0038521885871887207, 0.00039702653884887695, 0.4243361771800354, -0.04402112149266921, 0.9044201426310506,-0.005004155887957697,-0.062744140625,-0.7641448974609375,-0.6356048583984375
20230118-1513,2023-01-18 15:13:53Z,u01, 65,100,walking,brisk, rt, d,126128.65306137501, -0.11877772036303481, 0.8767654806191233, 0.04489383815470149, 0.0329851433634758, 0.019884947687387466, -0.023162884637713432, -0.07579654455184937, -0.7686739563941956, -0.6351339221000671, 0.004217579960823059, -0.0026729702949523926, 0.004564464092254639, 0.4248268701476091, -0.04421729537998593, 0.9041807297318186,-0.004901182542823183,-0.0715789794921875,-0.7713470458984375,-0.6305694580078125
20230118-1513,2023-01-18 15:13:53Z,u01, 66,100,walking,brisk, rt, d,126128.663084375, -0.11842495343059686, 0.8773302909472317, 0.04464178388552356, -0.001540341880172491, 0.03237650543451309, -0.03807978332042694, -0.07552119344472885, -0.7690351009368896, -0.6347295641899109, -0.00023868680000305176, 0.0015485882759094238, 0.004312634468078613, 0.4250771095547782, -0.04409855625250964, 0.9040687304909382,-0.00495799100169151,-0.0757598876953125,-0.767486572265625,-0.6304168701171875
20230118-1513,2023-01-18 15:13:53Z,u01, 67,100,walking,brisk, rt, d,126128.67310737501, -0.11786675238507022, 0.8775745940179712, 0.04408945162108389, -0.015545145608484745, 0.012040872126817703, -0.05205418914556503, -0.07514478266239166, -0.7691912651062012, -0.6345850229263306, 0.005274787545204163, 0.0051073431968688965, -0.004132688045501709, 0.42517662027343756, -0.043958128660786036, 0.9040280506530077,-0.005096677704061175,-0.0698699951171875,-0.7640838623046875,-0.6387176513671875
20230118-1513,2023-01-18 15:13:53Z,u01, 68,100,walking,brisk, rt, d,126128.68313037501, -0.11826485052863912, 0.8778204132472256, 0.04412836944667868, -0.01704423874616623, -0.010511308908462524, -0.024327218532562256, -0.07537508755922318, -0.7693483233451843, -0.6343672871589661, 0.017864719033241272, 0.0044405460357666016, -0.007325887680053711, 0.42528745137049573, -0.04412426550616018, 0.9039673616494935,-0.005171444205348517,-0.0575103759765625,-0.7649078369140625,-0.641693115234375
20230118-1513,2023-01-18 15:13:53Z,u01, 69,100,walking,brisk, rt, d,126128.69315237501, -0.11864229730496054, 0.8778731668636546, 0.04419752038489678, -0.018120117485523224, -0.012046354822814465, -0.017995553091168404, -0.0756097286939621, -0.7693819999694824, -0.6342985033988953, 0.010393671691417694, 0.008426249027252197, -0.005716204643249512, 0.42531178322990904, -0.04427896713577476, 0.9039481077804759,-0.005222109530480978,-0.065216064453125,-0.760955810546875,-0.6400146484375
20230118-1513,2023-01-18 15:13:53Z,u01, 70,100,walking,brisk, rt, d,126128.703175375, -0.11836070351313555, 0.8777744588891337, 0.04372076505164631, -0.040209174156188965, -0.0018054344691336155, -0.029734235256910324, -0.07544005662202835, -0.7693189382553101, -0.6343950033187866, 0.0005041509866714478, 0.01101827621459961, -0.005940079689025879, 0.4252575132579796, -0.0442552981202666, 0.9039737456206861,-0.00537462237669158,-0.0749359130859375,-0.75830078125,-0.6403350830078125
20230118-1513,2023-01-18 15:13:53Z,u01, 71,100,walking,brisk, rt, d,126128.713198375, -0.11739970176705966, 0.87704430511703, 0.04282577961785505, -0.06529422849416733, 0.011942069046199322, -0.02363668754696846, -0.07489615678787231, -0.7688522934913635, -0.6350250244140625, -0.0061280131340026855, 0.00286102294921875, -0.006103575229644775, 0.4249106666913551, -0.04402738520890299, 0.9041469904864932,-0.0055521080453485375,-0.081024169921875,-0.7659912109375,-0.6411285400390625
20230118-1513,2023-01-18 15:13:53Z,u01, 72,100,walking,brisk, rt, d,126128.72322137501, -0.1162788461091605, 0.8763732151000351, 0.041883117530341706, -0.05852527543902397, 0.012302128598093987, -0.013296164572238922, -0.0742441713809967, -0.7684230208396912, -0.6356208324432373, -0.007756546139717102, -0.0041751861572265625, -0.006270647048950195, 0.4245901374267433, -0.04373556767912892, 0.9043105861230701,-0.005719518322145577,-0.082000732421875,-0.7725982666015625,-0.6418914794921875
20230118-1513,2023-01-18 15:13:53Z,u01, 73,100,walking,brisk, rt, d,126128.73324337501, -0.11586229999202205, 0.8761015218496272, 0.041512414639375404, -0.031741026788949966, 0.0008446770370937884, -0.01640348881483078, -0.07400354743003845, -0.7682490944862366, -0.6358591914176941, -0.006059311330318451, -0.0035556554794311523, -0.0018666982650756836, 0.4244604498389027, -0.043631801326191655, 0.9043761549680753,-0.00579037938481522,-0.0800628662109375,-0.7718048095703125,-0.637725830078125
20230118-1513,2023-01-18 15:13:53Z,u01, 74,100,walking,brisk, rt, d,126128.74326637501, -0.11599402488008165, 0.8762550938111422, 0.04146064036824136, 0.03246006369590759, -0.023042811080813408, -0.004585178568959236, -0.07407364994287491, -0.7683473825454712, -0.6357322335243225, 0.005317553877830505, 0.007528960704803467, -0.007441043853759766, 0.42452831424292237, -0.04369902790500321, 0.9043406697783288,-0.005846452586440922,-0.068756103515625,-0.7608184814453125,-0.6431732177734375
20230118-1513,2023-01-18 15:13:53Z,u01, 75,100,walking,brisk, rt, d,126128.753289375, -0.116061427449931, 0.876527872239167, 0.04140716233842415, 0.04689297080039978, -0.015092744491994381, 0.008218260481953621, -0.07409220933914185, -0.7685219645500183, -0.6355189085006714, 0.006388969719409943, 0.001355886459350586, 0.0034387707710266113, 0.42465022244944745, -0.043734953240212135, 0.9042812644055772,-0.005893308146595076,-0.0677032470703125,-0.7671661376953125,-0.632080078125
20230118-1513,2023-01-18 15:13:53Z,u01, 76,100,walking,brisk, rt, d,126128.76331237501, -0.11519359662980543, 0.8767106962656481, 0.04067003606108851, 0.02920239046216011, -0.005724808666855097, -0.01995239034295082, -0.07352451980113983, -0.7686389088630676, -0.6354434490203857, -0.0019759610295295715, 0.011207938194274902, 0.007696866989135742, 0.42471923887225776, -0.04349515864327404, 0.9042595111235182,-0.006047879047365687,-0.07550048828125,-0.7574310302734375,-0.62774658203125
20230118-1513,2023-01-18 15:13:53Z,u01, 77,100,walking,brisk, rt, d,126128.773334375, -0.11459111495216495, 0.8768486232031666, 0.03996271425985651, 0.04470744729042053, -0.023825781419873238, -0.030437281355261803, -0.07312952727079391, -0.7687271237373352, -0.6353822350502014, 0.0026949718594551086, 0.012043893337249756, 0.003943026065826416, 0.42476808070705585, -0.043370043366812924, 0.9042411488765203,-0.006243907900443643,-0.0704345703125,-0.756683349609375,-0.631439208984375
20230118-1513,2023-01-18 15:13:53Z,u01, 78,100,walking,brisk, rt, d,126128.78335737501, -0.11460466536240932, 0.8769783108510005, 0.03952564592509228, 0.03458743542432785, -0.043663933873176575, -0.04304521903395653, -0.07312674075365067, -0.7688100934028625, -0.6352822184562683, 0.007254555821418762, 0.004878878593444824, -0.002886176109313965, 0.42481710583270954, -0.04346625959206258, 0.9042120871524283,-0.0064482961690097325,-0.0658721923828125,-0.7639312744140625,-0.6381683349609375
20230118-1513,2023-01-18 15:13:53Z,u01, 79,100,walking,brisk, rt, d,126128.793380375, -0.11489412715360273, 0.8772231775900012, 0.03910594271236718, 0.04460856691002846, -0.04760381579399109, -0.04819726198911667, -0.07328904420137405, -0.7689666748046875, -0.6350740194320679, 0.002183102071285248, 0.005050718784332275, -0.002483963966369629, 0.42491758472456437, -0.04368112527592352, 0.9041526537778668,-0.006706905778393578,-0.07110595703125,-0.763916015625,-0.6375579833984375
20230118-1513,2023-01-18 15:13:53Z,u01, 80,100,walking,brisk, rt, d,126128.803403375, -0.115200962761744, 0.877654152263803, 0.0387813742584186, 0.05269765481352806, -0.030120428651571274, -0.040590476244688034, -0.07344581186771393, -0.7692421078681946, -0.6347222924232483, -0.002848125994205475, -0.0035086870193481445, -0.0011878013610839844, 0.4251040222617141, -0.043879747917550914, 0.9040537453005277,-0.006931820552133393,-0.0762939453125,-0.7727508544921875,-0.6359100341796875
20230118-1513,2023-01-18 15:13:53Z,u01, 81,100,walking,brisk, rt, d,126128.813425375, -0.11533923958407932, 0.8781675727273565, 0.038524646065648364, 0.05051981285214424, -0.011689224280416965, -0.030645353719592094, -0.07348811626434326, -0.7695700526237488, -0.6343197226524353, -0.008939854800701141, -0.009818315505981445, 0.0019344091415405273, 0.4253297290318815, -0.043986065406328004, 0.9039411492907286,-0.007092749110494977,-0.082427978515625,-0.779388427734375,-0.63238525390625
20230118-1513,2023-01-18 15:13:53Z,u01, 82,100,walking,brisk, rt, d,126128.82344837501, -0.11488069763016037, 0.8783333007060651, 0.03809585171597038, 0.04966254159808159, 0.012694145552814007, -0.009067891165614128, -0.07318263500928879, -0.7696758508682251, -0.6342266798019409, -0.006605572998523712, -0.006279408931732178, 0.013499081134796143, 0.42539673700551145, -0.04386655489570297, 0.9039146871195601,-0.007194007525722471,-0.0797882080078125,-0.7759552001953125,-0.6207275390625
20230118-1513,2023-01-18 15:13:53Z,u01, 83,100,walking,brisk, rt, d,126128.83347137501, -0.11443575284572335, 0.8786802097871597, 0.03798331098758973, 0.019702743738889694, 0.037804558873176575, 0.009561719372868538, -0.0728699266910553, -0.7698972821235657, -0.6339938044548035, -0.005606018006801605, -0.00933849811553955, 0.02272665500640869, 0.4255525401241577, -0.04368220415290183, 0.903850461186517,-0.007160613299889231,-0.0784759521484375,-0.77923583984375,-0.61126708984375
20230118-1513,2023-01-18 15:13:53Z,u01, 84,100,walking,brisk, rt, d,126128.843494375, -0.11432013054025965, 0.8786854922117905, 0.03831501134948175, 0.0031264303252100945, 0.049054019153118134, 0.019638322293758392, -0.07279615849256516, -0.7699006795883179, -0.6339981555938721, -0.003848731517791748, -0.0048642754554748535, 0.02451634407043457, 0.4255625736405762, -0.04355926326526219, 0.903853026033751,-0.0069862660447033535,-0.0766448974609375,-0.7747650146484375,-0.6094818115234375
20230118-1513,2023-01-18 15:13:53Z,u01, 85,100,walking,brisk, rt, d,126128.853516375, -0.11398576494163322, 0.8782358928320567, 0.03876648242492897, -0.05240181088447571, 0.08431932330131531, 0.05200238898396492, -0.07262353599071503, -0.7696136832237244, -0.6343663334846497, -0.0010611563920974731, -0.005883693695068359, 0.020703554153442383, 0.42537051255802655, -0.04332146787273419, 0.9039570808526132,-0.006697645376643871,-0.0736846923828125,-0.7754974365234375,-0.6136627197265625
20230118-1513,2023-01-18 15:13:53Z,u01, 86,100,walking,brisk, rt, d,126128.863539375, -0.1131973501402641, 0.8773499552360695, 0.03921930781625621, -0.07024312764406204, 0.10895436257123947, 0.05086148902773857, -0.07220035046339035, -0.7690476775169373, -0.6351006031036377, -0.015079915523529053, -0.006678581237792969, 0.01696699857711792, 0.4249828063122542, -0.042887304868935466, 0.9041629401137735,-0.006298928907756986,-0.0872802734375,-0.775726318359375,-0.618133544921875
20230118-1513,2023-01-18 15:13:53Z,u01, 87,100,walking,brisk, rt, d,126128.87356237501, -0.11259660519331782, 0.8766301071726846, 0.03992352807675794, -0.029934585094451904, 0.1119576096534729, 0.0596776157617569, -0.07188098877668381, -0.7685873508453369, -0.6356937885284424, -0.011050514876842499, -0.004819512367248535, 0.008069217205047607, 0.4246745428429869, -0.04248116472443741, 0.9043300667662465,-0.0058315280356559945,-0.0829315185546875,-0.773406982421875,-0.62762451171875
20230118-1513,2023-01-18 15:13:53Z,u01, 88,100,walking,brisk, rt, d,126128.883585375, -0.11242674216602723, 0.876462500996825, 0.04100571444666365, -0.008557123132050037, 0.10389143228530884, 0.06126299872994423, -0.07178745418787003, -0.768480122089386, -0.6358339786529541, -0.0018972307443618774, -0.0028210878372192383, -0.002578556537628174, 0.42462220493405595, -0.04217811393906289, 0.9043721060836948,-0.005301138660567181,-0.0736846923828125,-0.77130126953125,-0.6384124755859375
20230118-1513,2023-01-18 15:13:53Z,u01, 89,100,walking,brisk, rt, d,126128.89360737501, -0.11264897564339675, 0.8767772691404631, 0.042209559133273435, 0.03250216320157051, 0.07766009122133255, 0.04199449345469475, -0.07190155237913132, -0.768681526184082, -0.6355775594711304, 0.004976511001586914, 0.010228216648101807, -0.005764663219451904, 0.4247891999576318, -0.042016248281225924, 0.9043038662900434,-0.0048133949854351765,-0.066925048828125,-0.758453369140625,-0.6413421630859375
20230118-1513,2023-01-18 15:13:53Z,u01, 90,100,walking,brisk, rt, d,126128.903630375, -0.11291309982837955, 0.8774251530267677, 0.043214674271818986, 0.011292271316051483, 0.06737576425075531, 0.034188367426395416, -0.07201331108808517, -0.769095778465271, -0.6350637078285217, 0.012717671692371368, 0.010978162288665771, -0.005836009979248047, 0.42510217007285994, -0.04190809439333887, 0.9041639018390552,-0.004434531565016272,-0.059295654296875,-0.75811767578125,-0.640899658203125
20230118-1513,2023-01-18 15:13:53Z,u01, 91,100,walking,brisk, rt, d,126128.91365337501, -0.1129365540129591, 0.8779709147719335, 0.04388087184497076, -0.03108023852109909, 0.06487878412008286, 0.0024491085205227137, -0.07198088616132736, -0.769444465637207, -0.6346447467803955, 0.005223691463470459, 0.007786750793457031, 0.0004131793975830078, 0.4253625453870554, -0.041765144664161605, 0.9040492794598461,-0.0041548262787607995,-0.0667572021484375,-0.76165771484375,-0.6342315673828125
20230118-1513,2023-01-18 15:13:53Z,u01, 92,100,walking,brisk, rt, d,126128.92367637501, -0.11251293325871975, 0.8782483267164961, 0.043837096742615246, -0.0408436544239521, 0.042200904339551926, -0.03480292484164238, -0.07168806344270706, -0.7696216106414795, -0.6344630718231201, 0.0010703951120376587, 0.018141508102416992, -0.005154848098754883, 0.42548773860116545, -0.04157690426263841, 0.9039993511069973,-0.00409286343514503,-0.07061767578125,-0.7514801025390625,-0.639617919921875
20230118-1513,2023-01-18 15:13:53Z,u01, 93,100,walking,brisk, rt, d,126128.93369837501, -0.11188623937720041, 0.878483421547725, 0.0432775623620323, -0.031625159084796906, 0.016029756516218185, -0.04922527074813843, -0.07127022743225098, -0.7697716951370239, -0.6343280673027039, 0.00513865053653717, 0.008602321147918701, -0.009028315544128418, 0.4255835787050561, -0.04140758104250718, 0.9039614130975627,-0.004219478852631988,-0.066131591796875,-0.76116943359375,-0.6433563232421875
20230118-1513,2023-01-18 15:13:53Z,u01, 94,100,walking,brisk, rt, d,126128.943721375, -0.11197509612227824, 0.8786239818583691, 0.04299180898914488, -0.034695785492658615, -0.009121937677264214, -0.0646660178899765, -0.0713144987821579, -0.7698614001274109, -0.6342141628265381, 0.006556212902069092, 0.0039923787117004395, -0.007234811782836914, 0.42564093859838004, -0.041505511738430936, 0.9039291633934268,-0.004371743561715685,-0.06475830078125,-0.765869140625,-0.641448974609375
20230118-1513,2023-01-18 15:13:53Z,u01, 95,100,walking,brisk, rt, d,126128.953744375, -0.11181520013022235, 0.8785300836023998, 0.04229015018910033, -0.03355874493718147, -0.0166190005838871, -0.07004877179861069, -0.07122116535902023, -0.7698014974594116, -0.6342974901199341, 0.00254136323928833, 0.010280072689056396, -0.005961358547210693, 0.4255842874393868, -0.04158457924070891, 0.9039508790399723,-0.004652039360116267,-0.0686798095703125,-0.759521484375,-0.6402587890625
20230118-1513,2023-01-18 15:13:53Z,u01, 96,100,walking,brisk, rt, d,126128.96376737501, -0.11128823802887304, 0.8782550808640968, 0.041396988949508384, -0.024792950600385666, -0.00895069632679224, -0.049981582909822464, -0.07091040164232254, -0.7696259021759033, -0.6345451474189758, -0.002438582479953766, -0.002300858497619629, -0.00600355863571167, 0.4254428904177133, -0.04154228433173674, 0.9040177709522944,-0.004935476820791436,-0.0733489990234375,-0.7719268798828125,-0.6405487060546875
20230118-1513,2023-01-18 15:13:53Z,u01, 97,100,walking,brisk, rt, d,126128.97378937501, -0.11074128905682469, 0.8778619967134331, 0.04070580196202402, 0.00038811052218079567, -0.003689887234941125, -0.02062917873263359, -0.07059676200151443, -0.7693749070167542, -0.6348845958709717, -0.006826318800449371, -0.00455087423324585, -0.004641830921173096, 0.4252523653096705, -0.04145031924077727, 0.9041107094111199,-0.005120006323703449,-0.077423095703125,-0.77392578125,-0.6395263671875
20230118-1513,2023-01-18 15:13:53Z,u01, 98,100,walking,brisk, rt, d,126128.98381237501, -0.11009747381595467, 0.877630030007969, 0.039996797337077214, 0.008350162766873837, -0.018885351717472076, -0.01587330549955368, -0.0702076107263565, -0.7692266702651978, -0.6351072788238525, -0.004407860338687897, 0.004334151744842529, -0.002267599105834961, 0.42513460833520494, -0.04131483491404786, 0.9041712827341419,-0.005296867206446659,-0.074615478515625,-0.764892578125,-0.6373748779296875
20230118-1513,2023-01-18 15:13:53Z,u01, 99,100,walking,brisk, rt, d,126128.993835375, -0.1099952977586682, 0.8775902273916037, 0.039688082047049496, -0.0018116035498678684, -0.023134425282478333, -0.012287439778447151, -0.07014608383178711, -0.7692012786865234, -0.6351449489593506, 0.0032668113708496094, 0.0027064085006713867, -0.0019705891609191895, 0.4251104990118354, -0.041335084872777594, 0.9041810489628664,-0.005413552766973424,-0.0668792724609375,-0.7664947509765625,-0.637115478515625
20230118-1513,2023-01-18 15:13:53Z,u01, 100,100,walking,brisk, rt, d,126129.00385837501, -0.10998830912077528, 0.8771301986065447, 0.03929532012710294, -0.011748656630516052, -0.04301918298006058, -0.03654271364212036, -0.07018046826124191, -0.7689071893692017, -0.635496973991394, 0.00476604700088501, 0.0033890604972839355, -0.0008861422538757324, 0.42489468943848063, -0.04142486619291502, 0.9042772670323416,-0.005576279633319119,-0.0654144287109375,-0.7655181884765625,-0.636383056640625
20230118-1513,2023-01-18 15:13:53Z,u01, 101,100,walking,brisk, rt, d,126129.013880375, -0.10981333741618844, 0.8768522471828523, 0.038345589857685804, 0.006736192386597395, -0.08726547658443451, -0.05655333399772644, -0.07009270042181015, -0.7687294483184814, -0.635721743106842, 0.011788874864578247, 0.01756983995437622, -0.006307125091552734, 0.42474989594956586, -0.041553161398702756, 0.9043370267623383,-0.005960478970130415,-0.0583038330078125,-0.75115966796875,-0.64202880859375
20230118-1513,2023-01-18 15:13:53Z,u01, 102,100,walking,brisk, rt, d,126129.02390337501, -0.10988040804788002, 0.8768601187260326, 0.037327788863781006, 0.007959116250276566, -0.09404295682907104, -0.05449976772069931, -0.07013466209173203, -0.7687345147132874, -0.6357108950614929, 0.012761622667312622, 0.009914994239807129, -0.00557023286819458, 0.4247321135061462, -0.0417994851292606, 0.9043306421305832,-0.006435175686018958,-0.057373046875,-0.758819580078125,-0.6412811279296875
20230118-1513,2023-01-18 15:13:53Z,u01, 103,100,walking,brisk, rt, d,126129.033926375, -0.10986761706377741, 0.8766298198202461, 0.036349167209625353, -0.019827622920274734, -0.05626734346151352, -0.05356137827038765, -0.07014594227075577, -0.7685871720314026, -0.6358877420425415, -0.006315834820270538, -0.0029276013374328613, 0.003426194190979004, 0.42460760066610814, -0.04200609678321877, 0.9043763769202267,-0.006868345048836929,-0.0764617919921875,-0.771514892578125,-0.6324615478515625
20230118-1513,2023-01-18 15:13:53Z,u01, 104,100,walking,brisk, rt, d,126129.043949375, -0.10975766992729413, 0.8761700705910506, 0.03583537968035713, -0.07432682067155838, 0.009891700930893421, -0.01583903096616268, -0.07011472433805466, -0.7682929635047913, -0.6362466216087341, -0.02308594435453415, -0.00932532548904419, 0.00863736867904663, 0.4243894549812867, -0.04207452966932491, 0.9044741051455739,-0.007064168975113114,-0.09320068359375,-0.777618408203125,-0.6276092529296875
20230118-1513,2023-01-18 15:13:53Z,u01, 105,100,walking,brisk, rt, d,126129.05397237501, -0.1096289251352073, 0.8755438158647308, 0.03572700649903283, -0.04354369640350342, 0.01666465401649475, -0.01251298375427723, -0.07008544355630875, -0.7678919434547424, -0.6367338299751282, -0.030057981610298157, -0.005682826042175293, 0.012573003768920898, 0.42410463474023896, -0.04205163297983101, 0.9046087592175576,-0.007067955758981868,-0.1001434326171875,-0.7735748291015625,-0.6241607666015625
20230118-1513,2023-01-18 15:13:53Z,u01, 106,100,walking,brisk, rt, d,126129.06399437501, -0.10972445125708903, 0.8753445763942351, 0.03580564815426756, 0.011098241433501244, -0.007163714617490768, 0.005895851645618677, -0.07016302645206451, -0.7677643299102783, -0.6368792057037354, -0.006359800696372986, 0.007724106311798096, 0.005104243755340576, 0.42401591127463245, -0.042082091294362266, 0.9046491047709653,-0.00704694023875518,-0.0765228271484375,-0.760040283203125,-0.63177490234375
20230118-1513,2023-01-18 15:13:53Z,u01, 107,100,walking,brisk, rt, d,126129.07401737501, -0.10983067711252509, 0.8754120793379148, 0.03585544671817431, 0.006638606544584036, -0.012033305130898952, 0.008413044735789299, -0.07022500038146973, -0.7678076028823853, -0.6368202567100525, 0.0037577226758003235, 0.009613633155822754, 0.012506842613220215, 0.42404706799152037, -0.04211824844719054, 0.9046328399442035,-0.007048866808969,-0.06646728515625,-0.7581939697265625,-0.6243133544921875
20230118-1513,2023-01-18 15:13:53Z,u01, 108,100,walking,brisk, rt, d,126129.084040375, -0.1098049368621619, 0.8753038210529679, 0.03593234761090869, -0.025074316188693047, 0.015110697597265244, 0.02020392380654812, -0.07021771371364594, -0.7677382230758667, -0.6369047164916992, -0.006305105984210968, 0.0115431547164917, 0.009768366813659668, 0.4239998564019497, -0.04209243915450579, 0.9046565044088297,-0.007005524454017231,-0.0765228271484375,-0.756195068359375,-0.62713623046875
20230118-1513,2023-01-18 15:13:53Z,u01, 109,100,walking,brisk, rt, d,126129.09406337501, -0.10924140284217068, 0.8746561453226437, 0.03588360231770306, -0.02313157729804516, 0.04685531184077263, 0.03129492327570915, -0.06991298496723175, -0.7673230767250061, -0.6374382972717285, -0.016253389418125153, 0.0038495659828186035, 0.007219791412353516, 0.42370807835417884, -0.04186061332755073, 0.9048048380099941,-0.006889635070539026,-0.0861663818359375,-0.7634735107421875,-0.630218505859375
20230118-1513,2023-01-18 15:13:53Z,u01, 110,100,walking,brisk, rt, d,126129.104085375, -0.1086357351264524, 0.8742550051616335, 0.03599745688459807, -0.009879954159259796, 0.0416746661067009, 0.03686652332544327, -0.06956025213003159, -0.7670657634735107, -0.6377863883972168, -0.006169110536575317, 0.008337795734405518, 0.0057672858238220215, 0.42353123105689083, -0.041570363175299246, 0.9049023797027367,-0.006698428439709985,-0.0757293701171875,-0.75872802734375,-0.63201904296875
20230118-1513,2023-01-18 15:13:53Z,u01, 111,100,walking,brisk, rt, d,126129.11410837501, -0.10909671751765125, 0.8743577764229975, 0.03683080533864289, 0.0054800743237137794, 0.018571211025118828, 0.042387284338474274, -0.06984566897153854, -0.7671316862106323, -0.6376758813858032, 0.010366924107074738, 0.0095786452293396, 0.0031238794326782227, 0.42359351213480534, -0.041600415344466284, 0.9048738328853416,-0.00642194141753729,-0.059478759765625,-0.7575531005859375,-0.634552001953125
20230118-1513,2023-01-18 15:13:53Z,u01, 112,100,walking,brisk, rt, d,126129.124131375, -0.11059676472900684, 0.8747889432163743, 0.03835734447246775, 0.02681092917919159, -0.002455512061715126, 0.05283992365002632, -0.07076562196016312, -0.7674081921577454, -0.6372416019439697, 0.01792445033788681, 0.004163682460784912, 0.0009958148002624512, 0.4238155976682551, -0.04194697163017054, 0.9047563087331854,-0.006061545413322669,-0.0528411865234375,-0.76324462890625,-0.6362457275390625
20230118-1513,2023-01-18 15:13:53Z,u01, 113,100,walking,brisk, rt, d,126129.134154375, -0.1125478775978932, 0.8752765254892572, 0.04010610941386385, 0.018654407933354378, -0.015306596644222736, 0.03750956803560257, -0.07196678221225739, -0.7677206993103027, -0.6367303729057312, 0.015539787709712982, 0.009175896644592285, 0.007595181465148926, 0.42406709934940595, -0.042448775847142795, 0.904617387714052,-0.005698416390531279,-0.056427001953125,-0.758544921875,-0.6291351318359375
20230118-1513,2023-01-18 15:13:53Z,u01, 114,100,walking,brisk, rt, d,126129.144176375, -0.11340190818512774, 0.8754875725763576, 0.04070029824746346, 0.04353738948702812, -0.05081905052065849, 0.010690739378333092, -0.07249221950769424, -0.7678559422492981, -0.6365078091621399, 0.01724015176296234, 0.021502792835235596, 0.006670713424682617, 0.4241726214839891, -0.04270458865592391, 0.9045564893577931,-0.005617063094449811,-0.0552520751953125,-0.7463531494140625,-0.6298370361328125
20230118-1513,2023-01-18 15:13:53Z,u01, 115,100,walking,brisk, rt, d,126129.15419937501, -0.11390862723496921, 0.8760903103026546, 0.04056482642110464, 0.054271239787340164, -0.08434692025184631, -0.017496876418590546, -0.07276212424039841, -0.7682419419288635, -0.6360110640525818, 0.021446824073791504, 0.026954710483551025, -0.0034390687942504883, 0.424440551243242, -0.042949696873776554, 0.9044180343539443,-0.005803920428085817,-0.0513153076171875,-0.7412872314453125,-0.6394500732421875
20230118-1513,2023-01-18 15:13:53Z,u01, 116,100,walking,brisk, rt, d,126129.16422237501, -0.11468262271284374, 0.8765199020469424, 0.04035878278323693, 0.03367089107632637, -0.07935135811567307, -0.036018095910549164, -0.07321658730506897, -0.7685168385505676, -0.6356265544891357, 0.018819019198417664, 0.025719046592712402, 0.005667448043823242, 0.42462789389792893, -0.04333429016491872, 0.9043098965565762,-0.006074336653163679,-0.0543975830078125,-0.7427978515625,-0.6299591064453125
20230118-1513,2023-01-18 15:13:53Z,u01, 117,100,walking,brisk, rt, d,126129.174245375, -0.11544671948443165, 0.8767815016697869, 0.040203545415441286, 0.015042763203382492, -0.04977855086326599, -0.041597578674554825, -0.07367909699678421, -0.7686842083930969, -0.6353707909584045, 0.005960598587989807, 0.0128248929977417, 0.008234500885009766, 0.42474025174113644, -0.04370715422771816, 0.9042376168500593,-0.006314693680119596,-0.067718505859375,-0.755859375,-0.62713623046875
20230118-1513,2023-01-18 15:13:53Z,u01, 118,100,walking,brisk, rt, d,126129.184267375, -0.11538836359741873, 0.8766866868275409, 0.03962357255045462, -0.023889457806944847, -0.01763952523469925, -0.03523635119199753, -0.07365041226148605, -0.7686235904693604, -0.6354475021362305, 0.00014882534742355347, -0.002357184886932373, 0.011423945426940918, 0.4246849332766015, -0.043805946817231774, 0.9042570533330646,-0.006561645235941441,-0.0735015869140625,-0.7709808349609375,-0.6240234375
20230118-1513,2023-01-18 15:13:53Z,u01, 119,100,walking,brisk, rt, d,126129.194290375, -0.11434998042525903, 0.876080792415439, 0.038702213367149116, -0.08137528598308563, 0.0382479764521122, -0.017842154949903488, -0.07304365187883377, -0.7682358622550964, -0.6359860897064209, -0.005905315279960632, -0.016264259815216064, 0.0177304744720459, 0.42439462400834255, -0.04354474454265996, 0.9044045896957605,-0.006739582133254436,-0.078948974609375,-0.7845001220703125,-0.618255615234375
20230118-1513,2023-01-18 15:13:53Z,u01, 120,100,walking,brisk, rt, d,126129.20431337501, -0.1126272607606632, 0.8750263313968611, 0.037647215212976655, -0.12328092008829117, 0.07756049185991287, -0.019265081733465195, -0.0720389112830162, -0.7675603628158569, -0.6369155049324036, -0.0179879292845726, -0.020357608795166016, 0.026579201221466064, 0.42390127110763015, -0.04301112998671911, 0.9046607742679116,-0.006820049206087447,-0.09002685546875,-0.7879180908203125,-0.6103363037109375
20230118-1513,2023-01-18 15:13:53Z,u01, 121,100,walking,brisk, rt, d,126129.21433637501, -0.11080316908305285, 0.8737532381259485, 0.03660697340513206, -0.14185410737991333, 0.07984282076358795, -0.032625678926706314, -0.07098499685525894, -0.7667437195777893, -0.6380165219306946, -0.012099094688892365, -0.011103451251983643, 0.02252274751663208, 0.42330988766735844, -0.04243195659662707, 0.9049646445917442,-0.006867128162196968,-0.0830841064453125,-0.7778472900390625,-0.6154937744140625
20230118-1513,2023-01-18 15:13:53Z,u01, 122,100,walking,brisk, rt, d,126129.22435837501, -0.10888372160463913, 0.8722864924358652, 0.03543515348995221, -0.12748263776302338, 0.07707499712705612, -0.030914602801203728, -0.0698823630809784, -0.7658013105392456, -0.6392688751220703, -0.006197944283485413, -0.010550498962402344, 0.012971878051757812, 0.4226286380881923, -0.041840065164208594, 0.9053099189302014,-0.006949470772146726,-0.076080322265625,-0.7763519287109375,-0.6262969970703125
20230118-1513,2023-01-18 15:13:53Z,u01, 123,100,walking,brisk, rt, d,126129.234381375, -0.10681577713061322, 0.8707754145145826, 0.03427723439994803, -0.11200928688049316, 0.10042532533407211, -0.022575125098228455, -0.06868353486061096, -0.7648287415504456, -0.6405619382858276, -0.014232710003852844, -0.021715939044952393, 0.008619129657745361, 0.4219282635581172, -0.04117740193622286, 0.9056666027764237,-0.006994624299149512,-0.082916259765625,-0.7865447998046875,-0.6319427490234375
20230118-1513,2023-01-18 15:13:53Z,u01, 124,100,walking,brisk, rt, d,126129.24440437501, -0.10462086979606483, 0.8695255059161522, 0.033106916346788334, -0.12875844538211823, 0.11297653615474701, -0.05462760105729103, -0.06737717241048813, -0.7640228867530823, -0.6416613459587097, -0.020254038274288177, -0.013915836811065674, 0.008742034435272217, 0.4213464668816225, -0.04045348269471394, 0.9059697477947769,-0.007027577171755811,-0.0876312255859375,-0.7779388427734375,-0.6329193115234375
20230118-1513,2023-01-18 15:13:53Z,u01, 125,100,walking,brisk, rt, d,126129.25442737501, -0.10272298760912936, 0.8684708640886624, 0.03192032194699295, -0.12575283646583557, 0.0885217934846878, -0.07564548403024673, -0.06624185293912888, -0.763342022895813, -0.642589271068573, -0.00680195540189743, 0.0005399584770202637, -0.000950157642364502, 0.4208518973278163, -0.039862749421794866, 0.90622497639988,-0.007137176212554049,-0.0730438232421875,-0.7628021240234375,-0.6435394287109375
20230118-1513,2023-01-18 15:13:53Z,u01, 126,100,walking,brisk, rt, d,126129.26444937501, -0.10143878753575664, 0.8680075750330283, 0.030864698310775214, -0.08428715169429779, 0.04109276458621025, -0.07780583947896957, -0.06545238196849823, -0.7630426287651062, -0.6430255174636841, 0.007377438247203827, 0.0008661746978759766, -0.014857172966003418, 0.4206258515526302, -0.03951116181501193, 0.9063436887737889,-0.00733312382518676,-0.058074951171875,-0.762176513671875,-0.6578826904296875
20230118-1513,2023-01-18 15:13:53Z,u01, 127,100,walking,brisk, rt, d,126129.27447237501, -0.1009489096202962, 0.8683063365336029, 0.030072305588531596, -0.040355343371629715, -0.007167975418269634, -0.08037126064300537, -0.06511440128087997, -0.7632357478141785, -0.6428307890892029, 0.007756620645523071, 0.007345855236053467, -0.022238850593566895, 0.42074727415126845, -0.03945060191242607, 0.9062878828243984,-0.007596963379576936,-0.0573577880859375,-0.755889892578125,-0.665069580078125
20230118-1513,2023-01-18 15:13:53Z,u01, 128,100,walking,brisk, rt, d,126129.284495375, -0.10152736196158872, 0.8692794504613541, 0.02981774550305172, 0.019350331276655197, -0.04747039079666138, -0.062042322009801865, -0.06541093438863754, -0.7638640999794006, -0.6420537829399109, 0.00957903265953064, 0.01876223087310791, -0.024740099906921387, 0.42118058887921606, -0.03974931302343032, 0.9060713078258023,-0.007859446330158778,-0.0558319091796875,-0.7451019287109375,-0.6667938232421875
20230118-1513,2023-01-18 15:13:53Z,u01, 129,100,walking,brisk, rt, d,126129.29451837501, -0.10244271913716313, 0.8705024778654347, 0.029874695292819293, 0.06707235425710678, -0.05230802297592163, -0.020245231688022614, -0.06590302288532257, -0.7646528482437134, -0.6410638689994812, 0.003982864320278168, 0.0038496851921081543, -0.023486971855163574, 0.42173168318311827, -0.04013054168885033, 0.905796370583325,-0.008058645444834972,-0.061920166015625,-0.76080322265625,-0.66455078125
20230118-1513,2023-01-18 15:13:53Z,u01, 130,100,walking,brisk, rt, d,126129.30454037501, -0.1032800191358201, 0.8716371922705559, 0.03024524420168995, 0.07140079140663147, -0.023706471547484398, 0.002428655046969652, -0.06635026633739471, -0.7653836011886597, -0.6401450037956238, -0.015085883438587189, -0.013516485691070557, -0.013282179832458496, 0.42224923507470274, -0.04041149169051813, 0.9055423736609067,-0.008097548501072109,-0.0814361572265625,-0.778900146484375,-0.6534271240234375
20230118-1513,2023-01-18 15:13:53Z,u01, 131,100,walking,brisk, rt, d,126129.31456337501, -0.10434645597618016, 0.8730103252555792, 0.030940681157730108, 0.11048512905836105, -0.028814414516091347, 0.004201920703053474, -0.06692337244749069, -0.7662665843963623, -0.6390279531478882, -0.01706099510192871, -0.00701826810836792, -0.007303893566131592, 0.42288021735739506, -0.04072277727596611, 0.9052343510050783,-0.008044764617501471,-0.083984375,-0.773284912109375,-0.646331787109375
20230118-1513,2023-01-18 15:13:53Z,u01, 132,100,walking,brisk, rt, d,126129.324586375, -0.10593860535314356, 0.874435967170507, 0.031990591146484705, 0.1226685643196106, -0.06149140000343323, 0.016655927523970604, -0.06782513111829758, -0.7671818137168884, -0.6378335952758789, 0.004623241722583771, -7.575750350952148e-05, -0.012083947658538818, 0.42354002548388436, -0.04119512251030791, 0.9049053002115234,-0.007945225418106048,-0.063201904296875,-0.7672576904296875,-0.6499176025390625
20230118-1513,2023-01-18 15:13:53Z,u01, 133,100,walking,brisk, rt, d,126129.334609375, -0.10720509349243848, 0.8754459954870265, 0.03249444644187476, 0.12975992262363434, -0.10317706316709518, 0.003253063652664423, -0.06854993849992752, -0.7678292989730835, -0.6369764804840088, 0.018180683255195618, 0.013526380062103271, -0.014406025409698486, 0.4240019631192547, -0.04164255567964002, 0.9046678719888533,-0.008013439574200275,-0.0503692626953125,-0.754302978515625,-0.6513824462890625
20230118-1513,2023-01-18 15:13:53Z,u01, 134,100,walking,brisk, rt, d,126129.344631375, -0.10815392563129299, 0.8762536633889699, 0.032556437160450556, 0.12461230903863907, -0.11396659910678864, 0.03450845554471016, -0.06908733397722244, -0.7683464884757996, -0.6362944841384888, 0.01919110119342804, 0.003774404525756836, -0.01902484893798828, 0.4243643752916138, -0.04204339638601016, 0.9044776862443795,-0.008209096298019022,-0.049896240234375,-0.7645721435546875,-0.6553192138671875
20230118-1513,2023-01-18 15:13:53Z,u01, 135,100,walking,brisk, rt, d,126129.35465437501, -0.10904536449892646, 0.8763347864675702, 0.032848070386198025, 0.05151091143488884, -0.06881456822156906, 0.03690863028168678, -0.06964772939682007, -0.7683984041213989, -0.6361705660820007, 0.0007085353136062622, -0.008105993270874023, -0.010344326496124268, 0.4244035575616075, -0.04238311904727966, 0.9044428308858549,-0.008268646844907756,-0.068939208984375,-0.7765045166015625,-0.646514892578125
20230118-1513,2023-01-18 15:13:53Z,u01, 136,100,walking,brisk, rt, d,126129.36467737501, -0.10917966833712957, 0.8755355953914649, 0.03279100452876025, -0.0093897245824337, -0.026522232219576836, 0.025798186659812927, -0.06980007141828537, -0.7678866982460022, -0.6367715001106262, -0.010125458240509033, 0.0033909082412719727, -0.004540205001831055, 0.4240406128915162, -0.042471130543460085, 0.9046086935730003,-0.008300431195229174,-0.079925537109375,-0.764495849609375,-0.6413116455078125
20230118-1513,2023-01-18 15:13:53Z,u01, 137,100,walking,brisk, rt, d,126129.374700375, -0.10922612886249623, 0.8746908848761077, 0.03283805710257914, -0.022993016988039017, -0.01788506843149662, 0.022906767204403877, -0.06990034133195877, -0.7673453092575073, -0.6374128460884094, -0.005386516451835632, 0.0046347975730896, -0.008445978164672852, 0.4236596127214337, -0.04249820638240834, 0.9047862834111091,-0.008265182866593805,-0.075286865234375,-0.7627105712890625,-0.6458587646484375
20230118-1513,2023-01-18 15:13:53Z,u01, 138,100,walking,brisk, rt, d,126129.384722375, -0.10994722402047744, 0.874389995562379, 0.03316130637952249, -0.0046417065896093845, -0.04838039353489876, -0.013055495917797089, -0.07038528472185135, -0.7671523690223694, -0.6375917196273804, 0.0019496232271194458, 0.018937647342681885, -0.010372757911682129, 0.42352752788370085, -0.04276170538095127, 0.9048357008896684,-0.00826315794732846,-0.0684356689453125,-0.7482147216796875,-0.6479644775390625
20230118-1513,2023-01-18 15:13:53Z,u01, 139,100,walking,brisk, rt, d,126129.394745375, -0.11092349230137784, 0.8745009542250196, 0.033321206877887415, 0.04714473336935043, -0.07716809958219528, -0.013949173502624035, -0.07099828869104385, -0.7672235369682312, -0.6374380588531494, 0.00978003442287445, 0.0259210467338562, -0.009137868881225586, 0.4235770699331932, -0.043167383701138214, 0.9047919480264904,-0.00840073393131383,-0.06121826171875,-0.741302490234375,-0.646575927734375
20230118-1513,2023-01-18 15:13:53Z,u01, 140,100,walking,brisk, rt, d,126129.40476837501, -0.11125347072324297, 0.8748287982843309, 0.03311248787784834, 0.05280448496341705, -0.04712497815489769, 0.00966747384518385, -0.07118070125579834, -0.767433762550354, -0.6371647119522095, -0.0036789104342460632, -0.001136183738708496, 0.0031314492225646973, 0.4237192812566282, -0.043354550216319954, 0.9047148706373437,-0.008574437577596808,-0.074859619140625,-0.7685699462890625,-0.634033203125
20230118-1513,2023-01-18 15:13:54Z,u01, 141,100,walking,brisk, rt, d,126129.414791375, -0.11071575497795393, 0.8747817704376688, 0.03250616487302883, 0.03163186088204384, -0.013179795816540718, -0.008496616967022419, -0.07084206491708755, -0.7674036026000977, -0.6372387409210205, -0.018162444233894348, -0.0033177733421325684, 0.021683871746063232, 0.42368723670663055, -0.04324066044185057, 0.9047337897520199,-0.008733456178799535,-0.0890045166015625,-0.770721435546875,-0.6155548095703125
20230118-1513,2023-01-18 15:13:54Z,u01, 142,100,walking,brisk, rt, d,126129.42481337501, -0.10983390200079467, 0.8747467951831517, 0.031708892539639794, 0.03524124249815941, -0.013754505664110184, -0.00777889508754015, -0.07028301805257797, -0.7673811912536621, -0.6373275518417358, -0.004927538335323334, -0.0015091300010681152, 0.01690518856048584, 0.4236581852804871, -0.04301129182739174, 0.9047565412718442,-0.008906328044853475,-0.0752105712890625,-0.768890380859375,-0.62042236328125
20230118-1513,2023-01-18 15:13:54Z,u01, 143,100,walking,brisk, rt, d,126129.434836375, -0.10996712801828024, 0.8749840435534925, 0.031601653186390494, 0.012881151400506496, -0.037289656698703766, -0.004936183802783489, -0.07034794241189957, -0.7675333023071289, -0.6371371746063232, 0.012868091464042664, -0.0026997923851013184, 0.013998687267303467, 0.42376252872607545, -0.043089820994903105, 0.9047030916734823,-0.008989760698034583,-0.0574798583984375,-0.770233154296875,-0.623138427734375
20230118-1513,2023-01-18 15:13:54Z,u01, 144,100,walking,brisk, rt, d,126129.44485937501, -0.11053877417988536, 0.8748009790654186, 0.03164484583486798, -0.02106669545173645, -0.039093948900699615, -0.028524067252874374, -0.0707276463508606, -0.7674159407615662, -0.637236475944519, 0.009372062981128693, 0.0046291351318359375, 0.015639185905456543, 0.42367813521351216, -0.04334270416902829, 0.9047295751173827,-0.009086151184610156,-0.0613555908203125,-0.762786865234375,-0.6215972900390625
20230118-1513,2023-01-18 15:13:54Z,u01, 145,100,walking,brisk, rt, d,126129.45488237501, -0.11054561344086294, 0.8743189117020918, 0.031108027174510604, -0.03111683763563633, -0.02979046292603016, -0.04119078069925308, -0.07077281177043915, -0.7671067714691162, -0.6376036405563354, -0.0014470294117927551, 0.007249593734741211, 0.01229846477508545, 0.42344852926690146, -0.04346854351515939, 0.904828711606121,-0.009316788469482437,-0.0722198486328125,-0.759857177734375,-0.62530517578125
20230118-1513,2023-01-18 15:13:54Z,u01, 146,100,walking,brisk, rt, d,126129.46490437501, -0.11008433960912274, 0.8736255684046511, 0.030239711412242333, -0.012119712308049202, -0.02432725392282009, -0.057628076523542404, -0.07053711265325546, -0.7666617631912231, -0.638164758682251, -0.00813719630241394, 0.00257796049118042, 0.008907496929168701, 0.4231183667823988, -0.04345650683968842, 0.9049808760876078,-0.009592472475049277,-0.07867431640625,-0.7640838623046875,-0.6292572021484375
20230118-1513,2023-01-18 15:13:54Z,u01, 147,100,walking,brisk, rt, d,126129.474927375, -0.10910433598396736, 0.8731911185120498, 0.028671098610446668, 0.02687663398683071, -0.05806790664792061, -0.10623101145029068, -0.06994793564081192, -0.7663827538490295, -0.6385645866394043, -0.007505670189857483, 0.018305420875549316, 0.0067591071128845215, 0.42289271662841843, -0.043352732188865165, 0.905085956378099,-0.010082894466329411,-0.07745361328125,-0.748077392578125,-0.631805419921875
20230118-1513,2023-01-18 15:13:54Z,u01, 148,100,walking,brisk, rt, d,126129.484950375, -0.10884658321288611, 0.873998039138758, 0.027177752986852887, 0.08539347350597382, -0.09164504706859589, -0.10858550667762756, -0.06971614807844162, -0.7669008374214172, -0.6379677057266235, 0.005675017833709717, 0.02945888042449951, -0.0016350150108337402, 0.423226433342571, -0.043537590906015985, 0.9049137772977853,-0.010726390518663241,-0.0640411376953125,-0.7374420166015625,-0.6396026611328125
20230118-1513,2023-01-18 15:13:54Z,u01, 149,100,walking,brisk, rt, d,126129.49497337501, -0.10972793116358337, 0.8755098762994843, 0.026764426271273335, 0.09715831279754639, -0.0657346174120903, -0.053500283509492874, -0.07015133649110794, -0.7678702473640442, -0.6367527842521667, 0.0034857019782066345, -0.013272881507873535, -0.00048476457595825195, 0.423896066913591, -0.0439971207704181, 0.9045729400506644,-0.011141734870661174,-0.0666656494140625,-0.7811431884765625,-0.637237548828125
20230118-1513,2023-01-18 15:13:54Z,u01, 150,100,walking,brisk, rt, d,126129.50499537501, -0.10999201353937074, 0.8766492779935212, 0.02654162456981887, 0.05475998669862747, 0.0032551041804254055, -0.027264418080449104, -0.07022339850664139, -0.7685996294021606, -0.6358641386032104, -0.019162572920322418, -0.02148514986038208, 0.01202380657196045, 0.42440458709645906, -0.04414366554747874, 0.904324982222684,-0.011330034443161486,-0.089385986328125,-0.7900848388671875,-0.62384033203125
20230118-1513,2023-01-18 15:13:54Z,u01, 151,100,walking,brisk, rt, d,126129.51501837501, -0.10909009975008409, 0.8771179724293606, 0.02607353158946359, -0.02454611472785473, 0.06366198509931564, 0.008720772340893745, -0.06961065530776978, -0.7688993811607361, -0.635569155216217, -0.020904473960399628, -0.01436471939086914, 0.022348880767822266, 0.4246111386409827, -0.04382699113997531, 0.904243079515577,-0.011363159321422183,-0.09051513671875,-0.78326416015625,-0.61322021484375
20230118-1513,2023-01-18 15:13:54Z,u01, 152,100,walking,brisk, rt, d,126129.525041375, -0.10835574509220809, 0.8769172963596323, 0.026098480338571487, -0.04370462894439697, 0.04939010739326477, 0.021960943937301636, -0.0691605880856514, -0.7687710523605347, -0.6357734203338623, -0.007636889815330505, -0.011502325534820557, 0.02604740858078003, 0.4245251861329996, -0.04349316698133139, 0.904301648103981,-0.011190501584865446,-0.0767974853515625,-0.7802734375,-0.6097259521484375
20230118-1513,2023-01-18 15:13:54Z,u01, 153,100,walking,brisk, rt, d,126129.53506437501, -0.10867149999205909, 0.8766666464555064, 0.02660253136269751, -0.014087063260376453, -0.02198047749698162, 0.035904910415410995, -0.06938222795724869, -0.7686107754707336, -0.6359431147575378, 0.020294710993766785, 0.012873470783233643, 0.012835144996643066, 0.4244211388852876, -0.0435333390340862, 0.9043506158541593,-0.011022749839365041,-0.0490875244140625,-0.7557373046875,-0.62310791015625
20230118-1513,2023-01-18 15:13:54Z,u01, 154,100,walking,brisk, rt, d,126129.545086375, -0.11005612775857106, 0.8765939342623082, 0.027707570897914795, -0.0015984363853931427, -0.04321466013789177, 0.06556613743305206, -0.07026885449886322, -0.7685642242431641, -0.6359020471572876, 0.02542327344417572, 0.014001905918121338, 0.005424082279205322, 0.42440484469841777, -0.04392622036145799, 0.9043418429355802,-0.010814893913907452,-0.0448455810546875,-0.7545623779296875,-0.6304779052734375
20230118-1513,2023-01-18 15:13:54Z,u01, 155,100,walking,brisk, rt, d,126129.55510937501, -0.11146018279304845, 0.8761382676621629, 0.028955863992319628, -0.02050425484776497, -0.016780123114585876, 0.06478843837976456, -0.07120056450366974, -0.7682726383209229, -0.6361506581306458, 0.0023376643657684326, 0.007194817066192627, 0.005962669849395752, 0.4242190138171446, -0.04430455562932624, 0.9044138313401358,-0.010535526177143253,-0.0688629150390625,-0.761077880859375,-0.63018798828125
20230118-1513,2023-01-18 15:13:54Z,u01, 156,100,walking,brisk, rt, d,126129.565132375, -0.11186989186710646, 0.8752834544774241, 0.029642109358697658, -0.017461327835917473, 0.007709773723036051, 0.06267362087965012, -0.07153448462486267, -0.7677251696586609, -0.6367738246917725, -0.010435722768306732, 0.010370433330535889, 0.0021912455558776855, 0.42384580811921085, -0.044360125585624056, 0.9045889035135312,-0.010287788476527393,-0.08197021484375,-0.757354736328125,-0.63458251953125
20230118-1513,2023-01-18 15:13:54Z,u01, 157,100,walking,brisk, rt, d,126129.575155375, -0.11224920666484255, 0.8753331124351521, 0.030290122123988645, -0.006922019179910421, -0.004746363032609224, 0.0426340252161026, -0.07177175581455231, -0.767756998538971, -0.6367088556289673, 0.002329014241695404, 0.012050211429595947, -0.00504535436630249, 0.4238806424677866, -0.044393421980058155, 0.9045734182325975,-0.010076496384862533,-0.0694427490234375,-0.755706787109375,-0.641754150390625
20230118-1513,2023-01-18 15:13:54Z,u01, 158,100,walking,brisk, rt, d,126129.58517837501, -0.1135724762126616, 0.8758861637430176, 0.031343183402472156, 0.011325693689286709, -0.03895439952611923, 0.015818657353520393, -0.07256608456373215, -0.7681112289428711, -0.636191189289093, 0.01879412680864334, 0.017333149909973145, -0.004601657390594482, 0.42414750415645014, -0.044758155497359384, 0.9044321871866132,-0.00989673511314118,-0.05377197265625,-0.7507781982421875,-0.6407928466796875
20230118-1513,2023-01-18 15:13:54Z,u01, 159,100,walking,brisk, rt, d,126129.59520037501, -0.1149489578573575, 0.8767397683169065, 0.03206868011035715, 0.029955647885799408, -0.05754007026553154, -0.007269192021340132, -0.07336649298667908, -0.7686575055122375, -0.6354391574859619, 0.019197799265384674, 0.017619967460632324, -0.005002737045288086, 0.4245426410782099, -0.045210164722160454, 0.9042244360021335,-0.009885672069023627,-0.054168701171875,-0.75103759765625,-0.64044189453125
20230118-1513,2023-01-18 15:13:54Z,u01, 160,100,walking,brisk, rt, d,126129.60522337501, -0.11561091145546522, 0.8778531625924048, 0.03212575371859618, 0.048951443284749985, -0.038805264979600906, -0.009830353781580925, -0.07368834316730499, -0.7693692445755005, -0.6345400214195251, 0.00604613870382309, 0.013311505317687988, -0.0007139444351196289, 0.4250434935703308, -0.04547558349833476, 0.9039742009861714,-0.010033284533195552,-0.0676422119140625,-0.7560577392578125,-0.63525390625
20230118-1513,2023-01-18 15:13:54Z,u01, 161,100,walking,brisk, rt, d,126129.615246375, -0.11469849705643971, 0.8783033573373309, 0.031289524618927124, 0.023050811141729355, 0.014333054423332214, -0.017129838466644287, -0.07306969910860062, -0.769656777381897, -0.6342628002166748, -0.013249263167381287, -0.004345297813415527, 0.01089543104171753, 0.4252324691342707, -0.045232229531485056, 0.9038952919173255,-0.01023052200716127,-0.0863189697265625,-0.7740020751953125,-0.6233673095703125
20230118-1513,2023-01-18 15:13:54Z,u01, 162,100,walking,brisk, rt, d,126129.62527004168, -0.11303552396622417, 0.8783473395109593, 0.0299430587604344, 0.005944263190031052, 0.01217429619282484, -0.044917795807123184, -0.07201101630926132, -0.7696848511695862, -0.6343497633934021, -0.012980423867702484, 0.006272435188293457, 0.0171012282371521, 0.425230653620305, -0.044766087945636496, 0.9039164075423266,-0.010486762982492475,-0.084991455078125,-0.7634124755859375,-0.61724853515625
20230118-1513,2023-01-18 15:13:54Z,u01, 163,100,walking,brisk, rt, d,126129.63529204167, -0.11250528196767463, 0.8784074283977211, 0.02923798240372059, 0.008636034093797207, -0.025058025494217873, -0.03578038141131401, -0.07166945189237595, -0.7697231769561768, -0.6343418955802917, 0.00935257226228714, 0.008141875267028809, 0.007693946361541748, 0.4252448455844035, -0.044675233351505965, 0.9039117704791119,-0.010694410669190357,-0.06231689453125,-0.7615814208984375,-0.62664794921875
20230118-1513,2023-01-18 15:13:54Z,u01, 164,100,walking,brisk, rt, d,126129.64531504168, -0.11286273384545503, 0.8782024966327787, 0.028999387254353325, -0.010940330103039742, -0.044757429510354996, -0.03919428959488869, -0.0719139575958252, -0.7695923447608948, -0.6344729661941528, 0.01542593538761139, 0.0033723115921020508, 0.009488224983215332, 0.42514502182421965, -0.044891314476633935, 0.9039459035219821,-0.01087238481463602,-0.056488037109375,-0.7662200927734375,-0.6249847412109375
20230118-1513,2023-01-18 15:13:54Z,u01, 165,100,walking,brisk, rt, d,126129.65533804167, -0.11263734171661577, 0.8776803717378678, 0.02821858407006048, -0.024933548644185066, -0.04105164110660553, -0.03856953606009483, -0.07181611657142639, -0.7692588567733765, -0.6348884105682373, 0.0066610947251319885, 0.003847479820251465, 0.012131452560424805, 0.42489285157362994, -0.04496498718422958, 0.9040573478742162,-0.011162505432270915,-0.065155029296875,-0.765411376953125,-0.6227569580078125
20230118-1513,2023-01-18 15:13:54Z,u01, 166,100,walking,brisk, rt, d,126129.66536104167, -0.11170713461247593, 0.8771271335345824, 0.02694067990779432, -0.01971321925520897, -0.03153989464044571, -0.045749686658382416, -0.07127293944358826, -0.7689052224159241, -0.635377824306488, -0.00018396228551864624, 0.0010219812393188477, 0.010972857475280762, 0.42461950821998234, -0.044825907637403135, 0.9041881269646284,-0.011526984108402609,-0.0714569091796875,-0.76788330078125,-0.6244049072265625
20230118-1513,2023-01-18 15:13:54Z,u01, 167,100,walking,brisk, rt, d,126129.67538304167, -0.11077221550372111, 0.8766479064677807, 0.02573164898420268, -0.013911675661802292, -0.02101454883813858, -0.032956235110759735, -0.07071960717439651, -0.768598735332489, -0.6358103156089783, 0.003550425171852112, -0.0028702616691589355, 0.009711623191833496, 0.4243814102136269, -0.04466833365041145, 0.9043033600495674,-0.01186178186574357,-0.067169189453125,-0.7714691162109375,-0.6260986328125
20230118-1513,2023-01-18 15:13:54Z,u01, 168,100,walking,brisk, rt, d,126129.68540604168, -0.11041499001850781, 0.8761752755585711, 0.025203126343569745, -0.05197650194168091, 0.0030409859027713537, -0.019728844985365868, -0.07053249329328537, -0.7682963013648987, -0.636196494102478, 0.005758941173553467, -0.009398341178894043, 0.013576805591583252, 0.4241581825836686, -0.04462718524066607, 0.9044081168588243,-0.012011888969283683,-0.0647735595703125,-0.7776947021484375,-0.62261962890625
20230118-1513,2023-01-18 15:13:54Z,u01, 169,100,walking,brisk, rt, d,126129.69542904168, -0.11058198262556156, 0.8757867771681079, 0.025289162426337795, -0.08596470952033997, 0.026813693344593048, -0.024793004617094994, -0.07067167013883591, -0.768047571182251, -0.6364813446998596, -0.0002206563949584961, 0.002758324146270752, 0.023001670837402344, 0.4239835205973025, -0.044691226124111076, 0.9044870506000106,-0.01199763703052874,-0.070892333984375,-0.765289306640625,-0.6134796142578125
20230118-1513,2023-01-18 15:13:54Z,u01, 170,100,walking,brisk, rt, d,126129.70545204167, -0.11056326212641937, 0.8752504928051373, 0.025165528178072053, -0.08565125614404678, 0.009727383963763714, -0.03685792535543442, -0.07070517539978027, -0.7677040696144104, -0.6368918418884277, 0.0036885887384414673, 0.004520595073699951, 0.01659148931503296, 0.4237385495683449, -0.044718305830829475, 0.9045998968274354,-0.012034744970568358,-0.0670166015625,-0.76318359375,-0.62030029296875
20230118-1513,2023-01-18 15:13:54Z,u01, 171,100,walking,brisk, rt, d,126129.71547404167, -0.1098824440856932, 0.8746271880642603, 0.02446275329101636, -0.06471242010593414, 0.0023062198888510466, -0.005134135950356722, -0.07032402604818344, -0.7673044800758362, -0.6374154090881348, 0.016277402639389038, 0.004456639289855957, 0.009241580963134766, 0.4234451627810315, -0.04456995691778249, 0.9047425950394604,-0.01219124758508066,-0.054046630859375,-0.762847900390625,-0.628173828125
20230118-1513,2023-01-18 15:13:54Z,u01, 172,100,walking,brisk, rt, d,126129.72549704167, -0.10921926708757251, 0.8743147584782742, 0.024092667434578857, -0.050049323588609695, 0.03656885400414467, 0.0131284911185503, -0.06992742419242859, -0.7671040892601013, -0.6377002596855164, -0.005634091794490814, -0.008286476135253906, 0.012044072151184082, 0.4232997050101466, -0.04435361829433677, 0.9048210802377914,-0.01220973332059026,-0.0755615234375,-0.775390625,-0.6256561279296875
20230118-1513,2023-01-18 15:13:54Z,u01, 173,100,walking,brisk, rt, d,126129.73552004168, -0.10859219534817416, 0.8739502360696738, 0.024265730952855384, -0.0872657299041748, 0.1075383648276329, 0.03119359165430069, -0.06955782324075699, -0.7668702006340027, -0.6380218267440796, -0.029975250363349915, -0.014486551284790039, 0.01822507381439209, 0.4231425252690887, -0.044039481736264575, 0.9049128545892543,-0.011988823892040206,-0.0995330810546875,-0.7813568115234375,-0.6197967529296875
20230118-1513,2023-01-18 15:13:54Z,u01, 174,100,walking,brisk, rt, d,126129.74554304167, -0.10744058504795659, 0.8728927781398014, 0.024283614769613722, -0.17824171483516693, 0.12292930483818054, -0.023214789107441902, -0.06890994310379028, -0.7661910653114319, -0.6389074325561523, -0.03072994202375412, 3.2067298889160156e-05, 0.02538198232650757, 0.422671531938994, -0.04353245434475526, 0.9051611075862522,-0.0117086501978305,-0.099639892578125,-0.7661590576171875,-0.613525390625
20230118-1513,2023-01-18 15:13:54Z,u01, 175,100,walking,brisk, rt, d,126129.75556504168, -0.10583774559793559, 0.8713796935389699, 0.023451743237519147, -0.19810976088047028, 0.06935316324234009, -0.03415750339627266, -0.0680081769824028, -0.7652179002761841, -0.640169084072113, 0.004165418446063995, 0.026189029216766357, 0.014451920986175537, 0.421978431815904, -0.04300776396661103, 0.9055094787837735,-0.011706404814518224,-0.0638427734375,-0.7390289306640625,-0.6257171630859375
20230118-1513,2023-01-18 15:13:54Z,u01, 176,100,walking,brisk, rt, d,126129.76558804167, -0.10453979343545233, 0.8698574190119103, 0.022357182505718314, -0.2390018105506897, 0.01658955216407776, -0.07574596256017685, -0.06729868799448013, -0.7642369866371155, -0.6414146423339844, 0.02249889075756073, 0.016373276710510254, 0.0114707350730896, 0.42127364626055674, -0.04267550878882311, 0.9058509850059783,-0.011888486333746028,-0.0447998046875,-0.74786376953125,-0.62994384765625
20230118-1513,2023-01-18 15:13:54Z,u01, 177,100,walking,brisk, rt, d,126129.77561104168, -0.10321309170383057, 0.8676730757034732, 0.02022917661540622, -0.3010038137435913, -0.056969884783029556, -0.14904795587062836, -0.06661950796842575, -0.7628263831138611, -0.6431623101234436, 0.03727685660123825, 0.04998159408569336, 0.010593891143798828, 0.42024727950187624, -0.04255653758951497, 0.9063247663814293,-0.012517133538913379,-0.0293426513671875,-0.7128448486328125,-0.632568359375
20230118-1513,2023-01-18 15:13:54Z,u01, 178,100,walking,brisk, rt, d,126129.78563404168, -0.10213314301425877, 0.8650364436181097, 0.017616499766255823, -0.3322450816631317, -0.11920583248138428, -0.13690073788166046, -0.06612971425056458, -0.7611188888549805, -0.6452324390411377, 0.04858211427927017, 0.026255667209625244, 0.01139754056930542, 0.41900398966184726, -0.0426548700558875, 0.9068828291899191,-0.013408254957876085,-0.017547607421875,-0.73486328125,-0.6338348388671875
20230118-1513,2023-01-18 15:13:54Z,u01, 179,100,walking,brisk, rt, d,126129.79565604168, -0.10144183065149902, 0.8617167925693665, 0.014819336065181878, -0.4116254448890686, -0.19145339727401733, -0.11946827173233032, -0.06593913584947586, -0.75896155834198, -0.6477879881858826, 0.059957705438137054, 0.007466316223144531, 0.05046743154525757, 0.4174437097184852, -0.04297374310817956, 0.9075709703719558,-0.014450217962210788,-0.0059814453125,-0.751495361328125,-0.597320556640625
20230118-1513,2023-01-18 15:13:54Z,u01, 180,100,walking,brisk, rt, d,126129.80567904167, -0.10287921933840079, 0.8581584717475663, 0.013076634580828608, -0.41297462582588196, -0.3044297397136688, -0.03455737978219986, -0.06714712828397751, -0.7566397786140442, -0.6503748893737793, 0.0759209394454956, -0.06471025943756104, 0.1259760856628418, 0.41578018936119404, -0.04403839825624448, 0.9082668733355527,-0.015453007129192658,0.0087738037109375,-0.82135009765625,-0.5243988037109375
20230118-1513,2023-01-18 15:13:54Z,u01, 181,100,walking,brisk, rt, d,126129.81570204167, -0.1085890159181868, 0.85423542466236, 0.01824503694644684, -0.4433860182762146, 0.13152039051055908, 0.6819678544998169, -0.07118067145347595, -0.7540689706802368, -0.6529267430305481, 0.05973657965660095, -0.2735798954963684, 0.2627441883087158, 0.4140721088450543, -0.045617174418337854, 0.9089895717666061,-0.014188837432380723,-0.011444091796875,-1.02764892578125,-0.3901824951171875
20230118-1513,2023-01-18 15:13:54Z,u01, 182,100,walking,brisk, rt, d,126129.82572504168, -0.11077582389537491, 0.8460304655316436, 0.025904823025231404, -1.0577434301376343, 0.537900984287262, 0.4380660355091095, -0.07328984141349792, -0.7486546635627747, -0.6588965654373169, -0.11410333216190338, -0.3456292748451233, 0.4927588701248169, 0.4105017213552383, -0.045166895201158325, 0.9106748364577716,-0.010931581823714594,-0.1873931884765625,-1.0942840576171875,-0.1661376953125
20230118-1513,2023-01-18 15:13:54Z,u01, 183,100,walking,brisk, rt, d,126129.83574704168, -0.10782325390354623, 0.8330903802279019, 0.029613269142284303, -1.4390960931777954, 0.5610025525093079, 0.4248965382575989, -0.07238062471151352, -0.7400134801864624, -0.6686860918998718, 0.06101284176111221, -0.3319621682167053, 0.5721895098686218, 0.40470097018649204, -0.043290590320644355, 0.9133862690365483,-0.008279492568295858,-0.0113677978515625,-1.0719757080078125,-0.09649658203125
20230118-1513,2023-01-18 15:13:54Z,u01, 184,100,walking,brisk, rt, d,126129.84577004168, -0.10713651900120343, 0.8164417619821964, 0.03601072375335183, -1.7661240100860596, 0.5250656008720398, 0.7927544116973877, -0.07322879135608673, -0.7287136912345886, -0.6808919906616211, 0.2733173072338104, -0.3553316593170166, 0.6630544066429138, 0.39722812458657214, -0.04199792428770121, 0.9167461115992783,-0.00475051588448892,0.2000885009765625,-1.08404541015625,-0.0178375244140625
20230118-1513,2023-01-18 15:13:54Z,u01, 185,100,walking,brisk, rt, d,126129.85579304167, -0.1091675523276539, 0.7969220050147575, 0.04618546520998405, -1.9251246452331543, 0.5337427258491516, 0.9995889663696289, -0.07614699751138687, -0.7152082324028015, -0.694750964641571, 0.32155412435531616, -0.2593553066253662, 0.7242461442947388, 0.3884802269281109, -0.04132340415625861, 0.9205300983600123,8.768171868854188e-05,0.2454071044921875,-0.9745635986328125,0.0294952392578125
20230118-1513,2023-01-18 15:13:54Z,u01, 186,100,walking,brisk, rt, d,126129.86581604167, -0.11237750304835803, 0.7767983874437783, 0.058623185942189564, -1.8608686923980713, 0.5958865284919739, 1.2018181085586548, -0.07997472584247589, -0.7009997367858887, -0.7086630463600159, 0.2922092378139496, -0.22641408443450928, 0.6497946381568909, 0.37947056298684445, -0.04087252116110283, 0.9242821593453278,0.005822906879676203,0.2122344970703125,-0.9274139404296875,-0.058868408203125
20230118-1513,2023-01-18 15:13:54Z,u01, 187,100,walking,brisk, rt, d,126129.87583804167, -0.11683296371606121, 0.7572035808954267, 0.07453836523742213, -1.7649445533752441, 0.718268632888794, 1.5250030755996704, -0.08471644669771194, -0.6868917942047119, -0.7218051552772522, 0.26966825127601624, -0.25164568424224854, 0.5521274209022522, 0.37075628432303886, -0.04046221228834758, 0.9277572605101263,0.012998059726234721,0.1849517822265625,-0.93853759765625,-0.169677734375
20230118-1513,2023-01-18 15:13:54Z,u01, 188,100,walking,brisk, rt, d,126129.88586104168, -0.1228659610023015, 0.7380545728753082, 0.09463773450989363, -1.6719582080841064, 0.7991525530815125, 1.8496237993240356, -0.09066513180732727, -0.6728500127792358, -0.7342020869255066, 0.26374560594558716, -0.2791000008583069, 0.4438120126724243, 0.362333460270382, -0.04016734511063452, 0.9309247461804181,0.021912940465519407,0.1730804443359375,-0.9519500732421875,-0.2903900146484375
20230118-1513,2023-01-18 15:13:54Z,u01, 189,100,walking,brisk, rt, d,126129.89588404167, -0.13033914055083262, 0.7192850250781337, 0.11864341405722065, -1.6082206964492798, 0.9020985960960388, 2.1612658500671387, -0.09777375310659409, -0.6588469743728638, -0.7458961009979248, 0.2811081111431122, -0.31843268871307373, 0.36213749647140503, 0.3541887450993459, -0.04002867845243399, 0.9337515742978995,0.03249689386611865,0.1833343505859375,-0.9772796630859375,-0.383758544921875
20230118-1513,2023-01-18 15:13:54Z,u01, 190,100,walking,brisk, rt, d,126129.90590704167, -0.13838520423386685, 0.700415473701083, 0.14583327265926826, -1.5695180892944336, 1.018367886543274, 2.4177074432373047, -0.10546841472387314, -0.6445354223251343, -0.7572652101516724, 0.3091122508049011, -0.3053547143936157, 0.3330097794532776, 0.34609351754403955, -0.03983309093682794, 0.9362920427125092,0.044608759918175436,0.203643798828125,-0.94989013671875,-0.42425537109375
20230118-1513,2023-01-18 15:13:54Z,u01, 191,100,walking,brisk, rt, d,126129.91592904167, -0.14709275108725997, 0.6813836986250456, 0.17577661610535952, -1.550287127494812, 1.0532587766647339, 2.686426877975464, -0.11383569240570068, -0.6298683285713196, -0.7683145999908447, 0.3384145498275757, -0.33218300342559814, 0.3056070804595947, 0.3380287775772062, -0.03973956441383226, 0.9385029531132578,0.05804874850038075,0.224578857421875,-0.9620513916015625,-0.46270751953125
20230118-1513,2023-01-18 15:13:54Z,u01, 192,100,walking,brisk, rt, d,126129.92595204167, -0.15665866861488956, 0.6615647897935165, 0.20847768059536007, -1.5864139795303345, 1.100769281387329, 2.96513032913208, -0.12310370802879333, -0.614352285861969, -0.7793694734573364, 0.3733478784561157, -0.3563660979270935, 0.3399468660354614, 0.32973021062184227, -0.03991542670997453, 0.9404150170738454,0.072831623780574,0.250244140625,-0.9707183837890625,-0.439422607421875
20230118-1513,2023-01-18 15:13:54Z,u01, 193,100,walking,brisk, rt, d,126129.93597504168, -0.16660212682791564, 0.6408486763655908, 0.2436918045142892, -1.596929907798767, 1.1891671419143677, 3.2085342407226562, -0.13292942941188812, -0.5978759527206421, -0.7904897928237915, 0.3779093325138092, -0.38752132654190063, 0.3936697244644165, 0.3211484333296864, -0.04023422034110431, 0.9419838229890393,0.0889455786781601,0.2449798583984375,-0.9853973388671875,-0.396820068359375
20230118-1513,2023-01-18 15:13:54Z,u01, 194,100,walking,brisk, rt, d,126129.94599804167, -0.17584214167591425, 0.6193550724544343, 0.2806651987746369, -1.6114459037780762, 1.308772087097168, 3.390653371810913, -0.14244326949119568, -0.580510139465332, -0.8016968965530396, 0.37066900730133057, -0.3959912657737732, 0.4187470078468323, 0.3122878025594128, -0.04034715909556155, 0.9431692762222967,0.10620790305086235,0.2282257080078125,-0.97650146484375,-0.3829498291015625
20230118-1513,2023-01-18 15:13:54Z,u01, 195,100,walking,brisk, rt, d,126129.95602104167, -0.184211150137994, 0.5974915665459698, 0.31886972344559705, -1.5549206733703613, 1.361611247062683, 3.540017604827881, -0.15143658220767975, -0.5625703930854797, -0.812761664390564, 0.36652451753616333, -0.368810772895813, 0.4075339436531067, 0.3033124840086743, -0.04025809608657373, 0.9438833955053937,0.1243580287763467,0.215087890625,-0.9313812255859375,-0.4052276611328125
20230118-1513,2023-01-18 15:13:54Z,u01, 196,100,walking,brisk, rt, d,126129.96604304167, -0.19206316666622686, 0.5757114055918989, 0.35783827834510096, -1.5173085927963257, 1.3784337043762207, 3.6288340091705322, -0.16011492908000946, -0.5444316864013672, -0.8233816623687744, 0.36983177065849304, -0.36943238973617554, 0.4011862277984619, 0.2944397144200831, -0.04018001392974484, 0.9440452532310931,0.14307076185954665,0.209716796875,-0.9138641357421875,-0.4221954345703125
20230118-1513,2023-01-18 15:13:54Z,u01, 197,100,walking,brisk, rt, d,126129.97606604168, -0.19864705262233356, 0.5535252981304793, 0.39685383557542664, -1.558974266052246, 1.4858707189559937, 3.6798694133758545, -0.16787521541118622, -0.5256893634796143, -0.8339475989341736, 0.3608531951904297, -0.3741060495376587, 0.3878874182701111, 0.2853644028067214, -0.03991688284898, 0.9437628783142742,0.16212792048258856,0.1929779052734375,-0.8997955322265625,-0.4460601806640625
20230118-1513,2023-01-18 15:13:54Z,u01, 198,100,walking,brisk, rt, d,126129.98608904167, -0.20283490249831718, 0.5302726333680678, 0.43558659418005474, -1.6840479373931885, 1.676317572593689, 3.7346489429473877, -0.17378206551074982, -0.5057685375213623, -0.8449840545654297, 0.3368222713470459, -0.3714744448661804, 0.3711833357810974, 0.27564772497837847, -0.03906808566114519, 0.9431498316938067,0.1815504674536276,0.1630401611328125,-0.8772430419921875,-0.4738006591796875
20230118-1513,2023-01-18 15:13:54Z,u01, 199,100,walking,brisk, rt, d,126129.99611204167, -0.20361401958067218, 0.5047336522825812, 0.47366993686232745, -2.005704879760742, 1.9167472124099731, 3.756175994873047, -0.17699508368968964, -0.4835743308067322, -0.8572214841842651, 0.3168724477291107, -0.30982163548469543, 0.34860020875930786, 0.2645596411129759, -0.037382631423314355, 0.9423741211085258,0.20135013954200393,0.1398773193359375,-0.79339599609375,-0.5086212158203125
20230118-1513,2023-01-18 15:13:54Z,u01, 200,100,walking,brisk, rt, d,126130.00613404167, -0.2007970384602931, 0.4756987174128408, 0.5104709096170246, -2.3565914630889893, 2.0971179008483887, 3.7656514644622803, -0.17730602622032166, -0.45795971155166626, -0.8711116313934326, 0.31158339977264404, -0.25641098618507385, 0.3351466655731201, 0.2514250488413407, -0.03506606442633996, 0.9415897354096623,0.2212793320439223,0.13427734375,-0.7143707275390625,-0.5359649658203125
20230118-1513,2023-01-18 15:13:54Z,u01, 201,100,walking,brisk, rt, d,126130.01615704167, -0.1952133920109932, 0.44338291034754734, 0.5465781842615087, -2.717855453491211, 2.2126317024230957, 3.83735728263855, -0.17521949112415314, -0.4289977252483368, -0.8861484527587891, 0.3457670211791992, -0.21325990557670593, 0.24445533752441406, 0.23637070201689458, -0.0324756299740234, 0.9406358892619863,0.24140894627768053,0.1705474853515625,-0.6422576904296875,-0.641693115234375
20230118-1513,2023-01-18 15:13:54Z,u01, 202,100,walking,brisk, rt, d,126130.02618004168, -0.18724328940335644, 0.4078932393709204, 0.5823365037207955, -2.95493483543396, 2.311326265335083, 3.882221221923828, -0.17087897658348083, -0.39667630195617676, -0.9019137024879456, 0.3910023272037506, -0.06600064039230347, 0.19839197397232056, 0.21944184627311117, -0.029806534844107918, 0.939383802110171,0.2617536909149644,0.220123291015625,-0.462677001953125,-0.703521728515625
20230118-1513,2023-01-18 15:13:54Z,u01, 203,100,walking,brisk, rt, d,126130.03620304167, -0.1774401150074099, 0.3719239236771562, 0.6178456819008129, -2.918639659881592, 2.3359196186065674, 3.8582987785339355, -0.16444242000579834, -0.36340847611427307, -0.9170021414756775, 0.4238876700401306, 0.0030111968517303467, 0.1445412039756775, 0.20192071327043032, -0.02696192925453152, 0.9375350737327145,0.2820089988303047,0.2594451904296875,-0.3603973388671875,-0.7724609375
20230118-1513,2023-01-18 15:13:54Z,u01, 204,100,walking,brisk, rt, d,126130.04622504167, -0.16607922449439502, 0.3371082557990339, 0.6527554742367165, -2.7839882373809814, 2.359607696533203, 3.766738176345825, -0.15601195394992828, -0.3307594954967499, -0.9307300448417664, 0.42229312658309937, 0.07746365666389465, 0.10364264249801636, 0.18456989334014223, -0.023852206139758192, 0.9350299462025673,0.30180140429193464,0.2662811279296875,-0.2532958984375,-0.82708740234375
20230118-1513,2023-01-18 15:13:54Z,u01, 205,100,walking,brisk, rt, d,126130.05624804167, -0.1533021963686824, 0.3048421843611956, 0.6871608866479199, -2.5541574954986572, 2.3430933952331543, 3.690610647201538, -0.14566197991371155, -0.30014264583587646, -0.9427072405815125, 0.4044053256511688, 0.12141650915145874, 0.07876986265182495, 0.16803435039762166, -0.020268761124567422, 0.9318225935672975,0.3210302003069605,0.2587432861328125,-0.1787261962890625,-0.8639373779296875
20230118-1513,2023-01-18 15:13:54Z,u01, 206,100,walking,brisk, rt, d,126130.06627104168, -0.13985631303106763, 0.27470930836353485, 0.7208487166928714, -2.475074529647827, 2.2625136375427246, 3.555368661880493, -0.13417387008666992, -0.2712671458721161, -0.9531062245368958, 0.3931613564491272, 0.09833934903144836, 0.11996108293533325, 0.15222182296178996, -0.01659511448706368, 0.9280426561230025,0.3395437036657615,0.2589874267578125,-0.1729278564453125,-0.8331451416015625
20230118-1513,2023-01-18 15:13:54Z,u01, 207,100,walking,brisk, rt, d,126130.07629404168, -0.12543282191987076, 0.24535961958537167, 0.7531738099632748, -2.5046122074127197, 2.3217787742614746, 3.4122543334960938, -0.12135729938745499, -0.24290518462657928, -0.9624289274215698, 0.37878838181495667, -0.01921023428440094, 0.13666903972625732, 0.1364489057511004, -0.012931520053488903, 0.9239421300006874,0.35713495840013243,0.2574310302734375,-0.262115478515625,-0.8257598876953125
20230118-1513,2023-01-18 15:13:54Z,u01, 208,100,walking,brisk, rt, d,126130.08631604168, -0.10970215326202372, 0.21468638197681528, 0.7842401919748497, -2.8446335792541504, 2.2513749599456787, 3.2530441284179688, -0.10696889460086823, -0.2130410224199295, -0.9711700081825256, 0.3601427674293518, -0.1365988403558731, 0.21575313806533813, 0.1196868141500023, -0.009490190847669649, 0.919644862031086,0.3739496432389101,0.253173828125,-0.349639892578125,-0.7554168701171875
20230118-1513,2023-01-18 15:13:54Z,u01, 209,100,walking,brisk, rt, d,126130.09633904167, -0.09100654935298856, 0.18215402527364782, 0.8122093500150983, -3.2906148433685303, 2.5851497650146484, 2.810014486312866, -0.08937742561101913, -0.18114838004112244, -0.9793859720230103, 0.3386755883693695, -0.1964913308620453, 0.12670964002609253, 0.10136195462545526, -0.005723122965891615, 0.9155463256740171,0.38918870288675744,0.249298095703125,-0.3776397705078125,-0.8526763916015625
20230118-1513,2023-01-18 15:13:54Z,u01, 210,100,walking,brisk, rt, d,126130.10636204167, -0.07129223346868153, 0.14822510443311962, 0.8354675366192506, -2.8928730487823486, 2.158391237258911, 2.3544921875, -0.0704507827758789, -0.14768293499946594, -0.986522376537323, 0.2644510865211487, 0.06383593380451202, 0.141948401927948, 0.08205320748519486, -0.0024644784658664673, 0.9119930970617044,0.40190755484981233,0.194000244140625,-0.0838470458984375,-0.844573974609375
20230118-1513,2023-01-18 15:13:54Z,u01, 211,100,walking,brisk, rt, d,126130.11638504168, -0.05409056698249224, 0.12206723453239156, 0.8572454586168229, -2.0167574882507324, 1.8125501871109009, 2.2883973121643066, -0.053661905229091644, -0.12176431715488434, -0.9911074042320251, 0.326885849237442, 0.6539756655693054, -0.30692726373672485, 0.06667593007128754, 0.0007917361620792276, 0.9081990983686054,0.41319268640980783,0.273223876953125,0.5322113037109375,-1.29803466796875
20230118-1513,2023-01-18 15:13:54Z,u01, 212,100,walking,brisk, rt, d,126130.12640704168, -0.041678726468305886, 0.10960504387273781, 0.8800713169184331, -0.20389564335346222, 1.1805709600448608, 2.4041495323181152, -0.04141663387417793, -0.10938572138547897, -0.9931361675262451, 0.4593244194984436, 1.0578720569610596, -0.15440106391906738, 0.05840927768826139, 0.0045031122274601714, 0.9036682359145478,0.42420721291379776,0.41790771484375,0.948486328125,-1.1475372314453125
20230118-1513,2023-01-18 15:13:54Z,u01, 213,100,walking,brisk, rt, d,126130.13643004168, -0.03585203729836236, 0.11236542179302178, 0.9041735154022625, 0.7823756337165833, 0.5159125924110413, 2.2403042316436768, -0.03561830893158913, -0.11212911456823349, -0.9930551052093506, 0.6161542534828186, 1.0823745727539062, -0.7648336887359619, 0.0583218491797055, 0.008427388541460672, 0.8984135110317955,0.43517884125297945,0.580535888671875,0.970245361328125,-1.7578887939453125
20230118-1513,2023-01-18 15:13:54Z,u01, 214,100,walking,brisk, rt, d,126130.14645304167, -0.0350893343766739, 0.1197893517074469, 0.9242234116260574, 0.7029820084571838, 0.16116057336330414, 1.729903221130371, -0.0348307304084301, -0.11950307339429855, -0.9922226667404175, 0.5396525859832764, 1.112453579902649, -0.78327476978302, 0.06137988592408905, 0.01100783769988803, 0.8938385842330804,0.44403137053257297,0.50482177734375,0.992950439453125,-1.7754974365234375
20230118-1513,2023-01-18 15:13:54Z,u01, 215,100,walking,brisk, rt, d,126130.15647604168, -0.03595739374012686, 0.1217757979213108, 0.9414122846309974, -0.24432632327079773, 0.08475315570831299, 1.698370337486267, -0.035683419555425644, -0.12147504836320877, -0.9919528961181641, 0.3870476186275482, 0.681014895439148, -0.8085842132568359, 0.06236201846855569, 0.011599173077995621, 0.8899490736074797,0.4516271945090686,0.3513641357421875,0.559539794921875,-1.800537109375
20230118-1513,2023-01-18 15:13:54Z,u01, 216,100,walking,brisk, rt, d,126130.16649804167, -0.037582564200162066, 0.11412455848191837, 0.9581188539500396, -1.1126254796981812, -0.007942689582705498, 1.6282404661178589, -0.0373292937874794, -0.11387698352336884, -0.9927933216094971, 0.25595730543136597, 0.4671179950237274, -0.7333571910858154, 0.059249437008356026, 0.009635837334519327, 0.8863220149637068,0.4591622087053094,0.2186279296875,0.353240966796875,-1.7261505126953125
20230118-1513,2023-01-18 15:13:54Z,u01, 217,100,walking,brisk, rt, d,126130.17652104168, -0.039452824653613924, 0.09948872280580798, 0.9724313605585645, -1.6606966257095337, -0.06030123308300972, 1.3101563453674316, -0.0392475500702858, -0.09932468086481094, -0.9942807555198669, 0.10949908196926117, 0.5361990928649902, -0.5837984681129456, 0.05315850157912496, 0.005813044604490012, 0.8833004668143604,0.4657475153850856,0.07025146484375,0.4368743896484375,-1.5780792236328125
20230118-1513,2023-01-18 15:13:54Z,u01, 218,100,walking,brisk, rt, d,126130.18654404167, -0.041607425127662, 0.08100547638233711, 0.9836336542541809, -1.905671238899231, -0.1895633488893509, 1.0936964750289917, -0.04145902395248413, -0.08091691136360168, -0.9958582520484924, 0.0307321697473526, 0.6500239968299866, -0.48403066396713257, 0.04550005505509085, 0.0007955463721368004, 0.8809606396231636,0.47099628348068556,-0.0107269287109375,0.5691070556640625,-1.479888916015625
20230118-1513,2023-01-18 15:13:54Z,u01, 219,100,walking,brisk, rt, d,126130.19656704167, -0.045476989496621344, 0.06114981284527076, 0.9933981084140674, -1.9732699394226074, -0.4576041102409363, 1.0162230730056763, -0.04537634551525116, -0.06111171096563339, -0.997098982334137, 0.03294050320982933, 0.6061099171638489, -0.39525026082992554, 0.03769859696627031, -0.005416013533490235, 0.8788535085010574,0.47556916130889876,-0.0124359130859375,0.5449981689453125,-1.3923492431640625
20230118-1513,2023-01-18 15:13:54Z,u01, 220,100,walking,brisk, rt, d,126130.20658904167, -0.0516937224479785, 0.040558598380889016, 1.001921544701546, -2.0449724197387695, -0.6790728569030762, 0.8713557124137878, -0.05162820965051651, -0.04054747894406319, -0.9978429079055786, -0.00933058187365532, 0.46541324257850647, -0.3172510862350464, 0.030189746101607712, -0.012928066583372968, 0.8769000432974087,0.4795496591434911,-0.0609588623046875,0.42486572265625,-1.315093994140625
20230118-1513,2023-01-18 15:13:54Z,u01, 221,100,walking,brisk, rt, d,126130.21661204168, -0.05881989715444076, 0.01911975377932105, 1.008753483299751, -2.1573758125305176, -0.6855858564376831, 0.7379040718078613, -0.058775242418050766, -0.01911858841776848, -0.9980881214141846, -0.13664400577545166, 0.31889277696609497, -0.24884480237960815, 0.02257570515355512, -0.021124955654096368, 0.8751930636068505,0.4827847349120974,-0.1954193115234375,0.299774169921875,-1.2469329833984375
20230118-1513,2023-01-18 15:13:54Z,u01, 222,100,walking,brisk, rt, d,126130.22663504168, -0.06471467567524525, -0.0020552056057778953, 1.0151964143737975, -1.9128626585006714, -0.4637368619441986, 0.8364503383636475, -0.06466937810182571, 0.002055204240605235, -0.9979045987129211, -0.24854770302772522, 0.24535083770751953, -0.23694336414337158, 0.014827926200380495, -0.028771832990704647, 0.8734403848714115,0.4858540521662415,-0.3132171630859375,0.247406005859375,-1.2348480224609375
20230118-1513,2023-01-18 15:13:54Z,u01, 223,100,walking,brisk, rt, d,126130.23665804167, -0.06801048813804766, -0.019528374717856428, 1.023217990925556, -1.472047209739685, -0.21691428124904633, 0.9800755381584167, -0.06794511526823044, 0.0195271335542202, -0.9974979758262634, -0.3064292073249817, 0.2217601239681244, -0.18865925073623657, 0.00813541124597926, -0.034421533286449806, 0.8712497537977298,0.4895639502191981,-0.3743743896484375,0.2412872314453125,-1.1861572265625
20230118-1513,2023-01-18 15:13:54Z,u01, 224,100,walking,brisk, rt, d,126130.24668004167, -0.0688942177425074, -0.03294858386218356, 1.032484089035618, -1.1128195524215698, -0.01890905387699604, 1.0334440469741821, -0.0688023641705513, 0.032942622900009155, -0.9970862865447998, -0.29756107926368713, 0.23439139127731323, -0.1494591236114502, 0.0026797322616927324, -0.0380747535236006, 0.8687664519004726,0.493749034948095,-0.366363525390625,0.267333984375,-1.14654541015625
20230118-1513,2023-01-18 15:13:54Z,u01, 225,100,walking,brisk, rt, d,126130.25670304167, -0.06811838421020484, -0.044342271828922426, 1.041990541778463, -1.0627686977386475, 0.08144737780094147, 1.0093567371368408, -0.06799881160259247, 0.0443277433514595, -0.9967001676559448, -0.24575233459472656, 0.22398284077644348, -0.16154873371124268, -0.0022715373360106114, -0.04055562608141763, 0.8662325312578526,0.49798741692550075,-0.313751220703125,0.268310546875,-1.1582489013671875
20230118-1513,2023-01-18 15:13:54Z,u01, 226,100,walking,brisk, rt, d,126130.26672604168, -0.06665980567701456, -0.05566799408152098, 1.0511996072458176, -1.0878839492797852, 0.11175893992185593, 0.975506067276001, -0.0665072649717331, 0.055639248341321945, -0.9962334632873535, -0.18747520446777344, 0.23243145644664764, -0.16506719589233398, -0.007347467029371366, -0.04277028358583163, 0.8637424957267671,0.5020612921962637,-0.2539825439453125,0.2880706787109375,-1.1613006591796875
20230118-1513,2023-01-18 15:13:54Z,u01, 227,100,walking,brisk, rt, d,126130.27674904167, -0.06508550978450546, -0.06719328265138982, 1.0598763172953987, -1.1242445707321167, 0.08552201092243195, 0.8930371403694153, -0.06489279866218567, 0.06714273244142532, -0.9956308603286743, -0.15344513952732086, 0.25759485363960266, -0.13596093654632568, -0.012530146334037049, -0.045028579250524024, 0.8613424649383357,0.5058702530884858,-0.2183380126953125,0.324737548828125,-1.131591796875
20230118-1513,2023-01-18 15:13:54Z,u01, 228,100,walking,brisk, rt, d,126130.28677104168, -0.06396373623933536, -0.07921962254723025, 1.067458562851502, -1.2120380401611328, 0.024574242532253265, 0.7669511437416077, -0.06371966004371643, 0.07913678884506226, -0.9948251843452454, -0.1436014175415039, 0.29609212279319763, -0.08534443378448486, -0.017819201691312896, -0.04764322854157681, 0.859156432583861,0.5091785979881855,-0.2073211669921875,0.3752288818359375,-1.080169677734375
20230118-1513,2023-01-18 15:13:54Z,u01, 229,100,walking,brisk, rt, d,126130.29679404167, -0.06328203276819246, -0.09158701096622322, 1.0737968098603714, -1.182176113128662, 0.01397885475307703, 0.6496950387954712, -0.06297475844621658, 0.09145902097225189, -0.9938156008720398, -0.14301882684230804, 0.3057730793952942, -0.049443066120147705, -0.02315301174481886, -0.05055831006362162, 0.8572280411125184,0.5119257485721557,-0.20599365234375,0.3972320556640625,-1.0432586669921875
20230118-1513,2023-01-18 15:13:54Z,u01, 230,100,walking,brisk, rt, d,126130.30681704168, -0.062355074492978176, -0.10349533587375487, 1.0792017810292514, -1.1470333337783813, 0.06135702505707741, 0.577974259853363, -0.061981238424777985, 0.10331067442893982, -0.9927160739898682, -0.13375842571258545, 0.39801687002182007, -0.06700676679611206, -0.028358877262262973, -0.0532703486838594, 0.8555206169283762,0.5142397832951112,-0.19573974609375,0.5013275146484375,-1.059722900390625
20230118-1513,2023-01-18 15:13:54Z,u01, 231,100,walking,brisk, rt, d,126130.31684004168, -0.06112156259679957, -0.11538167474989333, 1.084165611108473, -1.2092273235321045, 0.07229941338300705, 0.5564255118370056, -0.060677364468574524, 0.11512583494186401, -0.9914959669113159, -0.0972510278224945, 0.4546221196651459, -0.0689592957496643, -0.033631297183936704, -0.05586537449057694, 0.8539025827471857,0.5163317278857322,-0.157928466796875,0.5697479248046875,-1.060455322265625
20230118-1513,2023-01-18 15:13:54Z,u01, 232,100,walking,brisk, rt, d,126130.32686304167, -0.06021688474387675, -0.1291648344994951, 1.0888327687363986, -1.4746688604354858, -0.025750979781150818, 0.5237714052200317, -0.05967918410897255, 0.1288059800863266, -0.989872395992279, -0.04897857457399368, 0.3133784830570221, -0.04124021530151367, -0.03962342845846033, -0.05910813526344619, 0.8522533210992466,0.5182669183651993,-0.1086578369140625,0.4421844482421875,-1.0311126708984375
20230118-1513,2023-01-18 15:13:54Z,u01, 233,100,walking,brisk, rt, d,126130.33688504167, -0.060478958844981154, -0.14502810640500371, 1.0927279929470404, -1.6442651748657227, -0.12090945988893509, 0.4333615303039551, -0.059807565063238144, 0.14452023804187775, -0.9876927733421326, -0.022956032305955887, 0.10659366846084595, -0.04116159677505493, -0.046206557543589814, -0.06339228139570775, 0.8506463252363148,0.5198532290013709,-0.082763671875,0.2511138916015625,-1.0288543701171875
20230118-1513,2023-01-18 15:13:54Z,u01, 234,100,walking,brisk, rt, d,126130.34690804167, -0.06138049042279232, -0.16233098781096783, 1.0957304106747103, -1.7441989183425903, -0.14829207956790924, 0.37684550881385803, -0.060535505414009094, 0.16161899268627167, -0.9849948287010193, -0.040401309728622437, 0.24417327344417572, 0.015573441982269287, -0.053246962320977455, -0.06831808276271675, 0.849131689101299,0.5210305784168907,-0.1009368896484375,0.405792236328125,-0.96942138671875
20230118-1513,2023-01-18 15:13:54Z,u01, 235,100,walking,brisk, rt, d,126130.35693104168, -0.06253621906461179, -0.18015643919462368, 1.0983527761001124, -1.7697649002075195, -0.17209887504577637, 0.36008718609809875, -0.061484020203351974, 0.1791834831237793, -0.9818925261497498, -0.056710489094257355, 0.3329320251941681, 0.06686878204345703, -0.06043861444654651, -0.07349079070004266, 0.8476132729929468,0.5220132931361959,-0.118194580078125,0.512115478515625,-0.9150238037109375
20230118-1513,2023-01-18 15:13:54Z,u01, 236,100,walking,brisk, rt, d,126130.36695404167, -0.06371919599507202, -0.19827655535403566, 1.1006365788436971, -1.8056118488311768, -0.14438921213150024, 0.3081515431404114, -0.062428515404462814, 0.19697993993759155, -0.9784178733825684, -0.06482972204685211, 0.24779851734638214, 0.08242177963256836, -0.06774351777269821, -0.07875192474828105, 0.8460937714903864,0.5228139468061208,-0.12725830078125,0.4447784423828125,-0.89599609375
20230118-1513,2023-01-18 15:13:54Z,u01, 237,100,walking,brisk, rt, d,126130.37697604168, -0.0644089772374968, -0.2163604678140309, 1.1020113426676017, -1.7360223531723022, -0.03895999491214752, 0.18397775292396545, -0.06286381185054779, 0.2146763801574707, -0.9746600389480591, -0.08348316699266434, 0.24783280491828918, 0.13832581043243408, -0.07518300392233683, -0.08377049317615239, 0.844758550732971,0.523175889271878,-0.1463470458984375,0.4625091552734375,-0.836334228515625
20230118-1513,2023-01-18 15:13:54Z,u01, 238,100,walking,brisk, rt, d,126130.38699904167, -0.06407939920784765, -0.23210642364132508, 1.101816426448104, -1.3624463081359863, 0.11466631293296814, -0.0313931442797184, -0.06231837719678879, 0.230027973651886, -0.9711866974830627, -0.09347379207611084, 0.3824598491191864, 0.18416887521743774, -0.08195474823456841, -0.08769311856086565, 0.8439420002847097,0.5228338514494957,-0.155792236328125,0.61248779296875,-0.787017822265625
20230118-1513,2023-01-18 15:13:54Z,u01, 239,100,walking,brisk, rt, d,126130.39702204168, -0.06277961415283732, -0.24250547956943247, 1.099536185102184, -0.6884590983390808, 0.2557310163974762, -0.2723601758480072, -0.06090261787176132, 0.2401355504989624, -0.9688270092010498, -0.08324708044528961, 0.5775219202041626, 0.15454179048538208, -0.0868039223031138, -0.0897305427368576, 0.843985085152737,0.5216346122699156,-0.1441497802734375,0.817657470703125,-0.8142852783203125
20230118-1513,2023-01-18 15:13:54Z,u01, 240,100,walking,brisk, rt, d,126130.40704504168, -0.06066942086955207, -0.2455058968782018, 1.0958087400665215, 0.033963266760110855, 0.33370038866996765, -0.3911121189594269, -0.05881412327289581, 0.2430470883846283, -0.9682298302650452, -0.03867420554161072, 0.6651865839958191, 0.042860567569732666, -0.08879305568588848, -0.08944760883959077, 0.8448705727118221,0.5199121852396696,-0.0974884033203125,0.908233642578125,-0.9253692626953125
20230118-1513,2023-01-18 15:13:54Z,u01, 241,100,walking,brisk, rt, d,126130.41706704168, -0.0585656582069506, -0.24282108575724554, 1.0915485467505541, 0.4015585482120514, 0.2831677198410034, -0.4699627757072449, -0.05681505799293518, 0.24044190347194672, -0.9689993262290955, 0.03501031547784805, 0.5321411490440369, -0.054346561431884766, -0.0883874829528839, -0.08768110135212219, 0.8462295296457296,0.5180689281139418,-0.0218048095703125,0.7725830078125,-1.023345947265625
20230118-1513,2023-01-18 15:13:55Z,u01, 242,100,walking,brisk, rt, d,126130.42709004167, -0.057440201555002825, -0.23796781861370686, 1.086706764302163, 0.5218194127082825, 0.1796511709690094, -0.5067327618598938, -0.05579078942537308, 0.2357282042503357, -0.9702162742614746, 0.07362838089466095, 0.2728167474269867, -0.1661362648010254, -0.08682422310124528, -0.08575208219360453, 0.8478150271927906,0.516060004625556,0.0178375244140625,0.508544921875,-1.1363525390625
20230118-1513,2023-01-18 15:13:55Z,u01, 243,100,walking,brisk, rt, d,126130.43711304167, -0.05733431689610111, -0.23149214196765408, 1.0818936426968633, 0.7378748655319214, 0.06470008939504623, -0.5025067925453186, -0.05577436462044716, 0.22943012416362762, -0.9717258214950562, 0.09067127853631973, 0.07746993005275726, -0.12094080448150635, -0.08429663969666994, -0.08385208945732252, 0.8494313194250918,0.5141297401695509,0.0348968505859375,0.3069000244140625,-1.0926666259765625
20230118-1513,2023-01-18 15:13:55Z,u01, 244,100,walking,brisk, rt, d,126130.44713604168, -0.058192078821410476, -0.222595105796775, 1.0770705442844084, 0.9774647951126099, -0.0026296828873455524, -0.5418182611465454, -0.05672432854771614, 0.22076144814491272, -0.9736769199371338, 0.06406386941671371, 0.05128753185272217, -0.04048323631286621, -0.08047877178354013, -0.08176007312285331, 0.8511310618346072,0.5122639594040834,0.0073394775390625,0.2720489501953125,-1.01416015625
20230118-1513,2023-01-18 15:13:55Z,u01, 245,100,walking,brisk, rt, d,126130.45715804168, -0.058991899442453456, -0.2123042095202205, 1.0720798666419646, 0.9552534222602844, 0.08394861221313477, -0.5409556031227112, -0.05763396993279457, 0.21071293950080872, -0.9758475422859192, 0.02005164325237274, -0.004703998565673828, -0.01978844404220581, -0.07607441559981726, -0.07930272673618366, 0.85293086406633,0.5103260749648504,-0.0375823974609375,0.2060089111328125,-0.995635986328125
20230118-1513,2023-01-18 15:13:55Z,u01, 246,100,walking,brisk, rt, d,126130.46718104168, -0.05886467327889917, -0.20409480245786193, 1.0667068152972952, 0.6129035353660583, 0.18154627084732056, -0.630707323551178, -0.057609643787145615, 0.2026808261871338, -0.9775487780570984, -0.0037000924348831177, -0.2674848735332489, 0.11936396360397339, -0.0727991957195138, -0.07697978997194688, 0.8547320971377903,0.50814125761625,-0.061309814453125,-0.0648040771484375,-0.858184814453125
