SessionID,LoggingTime,UID,RecNo, Hertz,Activity,MoveType,Wrist,Side,TimeStamp,DMRoll,DMPitch,DMYaw,DMRotX,DMRotY,DMRotZ,DMGrvX,DMGrvY,DMGrvZ,DMUAccelX,DMUAccelY,DMUAccelZ,DMQuatX,DMQuatY,DMQuatW,DMQuatZ,AccelroX,AceelroY,AceelroZ
20230118-1457,2023-01-18 14:57:56Z,u01, 1,100,movements,wr-su, rt, d,125581.27754412501, 0.0615489510146626, 0.8236139481953864, -0.02689029294265598, 0.1286999136209488, -0.09133478999137878, 0.043090276420116425, 0.041800692677497864, -0.7336065769195557, -0.67828768491745, 0.03806382417678833, 0.018671154975891113, -0.07580161094665527, 0.4004192926993711, 0.02281577645445651, 0.9160479717537757,0.0,0.0830078125,-0.719207763671875,-0.7482452392578125
20230118-1457,2023-01-18 14:57:56Z,u01, 2,100,movements,wr-su, rt, d,125581.28756712501, 0.0600977091485682, 0.8249484560742449, -0.0263197320362298, 0.12577736377716064, -0.11529897898435593, 0.048937514424324036, 0.040757451206445694, -0.7345128059387207, -0.6773697733879089, 0.042402952909469604, 0.009567677974700928, -0.06010270118713379, 0.4010237855644151, 0.022249225966747693, 0.9157974646865867,-7.335465180835499e-06,0.0819244384765625,-0.7327117919921875,-0.7189788818359375
20230118-1457,2023-01-18 14:57:56Z,u01, 3,100,movements,wr-su, rt, d,125581.297590125, 0.058505592072260394, 0.8261197730442965, -0.025828551288504895, 0.09940462559461594, -0.13603967428207397, 0.03279548138380051, 0.039628613740205765, -0.7353071570396423, -0.6765744686126709, 0.03860318660736084, -0.004408478736877441, -0.021316707134246826, 0.4015544719775944, 0.0216048819047151, 0.915580308910972,-8.29356620385413e-05,0.075927734375,-0.7455596923828125,-0.6796722412109375
20230118-1457,2023-01-18 14:57:56Z,u01, 4,100,movements,wr-su, rt, d,125581.307612125, 0.05683019034172793, 0.8270213854992305, -0.025513343502891542, 0.07493443787097931, -0.15560325980186462, 0.02601667307317257, 0.03845735639333725, -0.7359179258346558, -0.6759777665138245, 0.03492215275764465, -0.017118632793426514, 0.010435223579406738, 0.4019635467567899, 0.02089077017663618, 0.9154173505405621,-0.00026097958649168307,0.0701904296875,-0.7602386474609375,-0.6514129638671875
20230118-1457,2023-01-18 14:57:56Z,u01, 5,100,movements,wr-su, rt, d,125581.317635125, 0.05508691456738526, 0.8277139934128532, -0.02527436667060618, 0.062203921377658844, -0.16003768146038055, 0.01708352565765381, 0.03725080564618111, -0.7363866567611694, -0.6755346059799194, 0.026881903409957886, -0.026644349098205566, 0.03931945562362671, 0.40227769421743187, 0.02013304161795426, 0.9152961673270519,-0.0004914698476205515,0.0580902099609375,-0.76153564453125,-0.6259002685546875
20230118-1457,2023-01-18 14:57:56Z,u01, 6,100,movements,wr-su, rt, d,125581.32765812501, 0.0534151200839646, 0.8282519610931109, -0.025136213828524386, 0.04179851710796356, -0.15588341653347015, 0.009622679091989994, 0.036100246012210846, -0.7367505431175232, -0.6752002835273743, 0.011263042688369751, -0.018605351448059082, 0.05493056774139404, 0.40252191808762583, 0.019389745757226656, 0.9152046652974144,-0.00075657097510895,0.0350494384765625,-0.74676513671875,-0.6156158447265625
20230118-1457,2023-01-18 14:57:56Z,u01, 7,100,movements,wr-su, rt, d,125581.33768012501, 0.0518923313693, 0.8286566814972348, -0.025035715754338744, 0.034155167639255524, -0.13528414070606232, 0.014531363733112812, 0.035056546330451965, -0.7370241284370422, -0.6749566197395325, -0.01123759150505066, -0.004858255386352539, 0.06288087368011475, 0.40270542728266, 0.018708703937891258, 0.9151378654837559,-0.0010112351345444859,0.0182952880859375,-0.7404327392578125,-0.6128997802734375
20230118-1457,2023-01-18 14:57:56Z,u01, 8,100,movements,wr-su, rt, d,125581.34770312501, 0.050515205802730064, 0.8290355951746295, -0.024799911559133924, 0.04327835887670517, -0.10804904997348785, 0.026450874283909798, 0.03411290794610977, -0.7372801899909973, -0.6747252941131592, -0.019464492797851562, -0.004464864730834961, 0.057308971881866455, 0.40287582774064945, 0.01812197315917974, 0.9150744737388326,-0.0011752996873479193,0.014404296875,-0.74676513671875,-0.62347412109375
20230118-1457,2023-01-18 14:57:56Z,u01, 9,100,movements,wr-su, rt, d,125581.357726125, 0.049270203169343545, 0.8295954059862295, -0.02427021152281993, 0.06742953509092331, -0.06384164094924927, 0.05520475655794144, 0.03325251489877701, -0.7376582622528076, -0.6743549108505249, -0.02000787854194641, -0.014066040515899658, 0.04036754369735718, 0.40312641030814117, 0.017653150125320316, 0.9149732728931786,-0.0011760516342974592,0.0155181884765625,-0.7508087158203125,-0.648040771484375
20230118-1457,2023-01-18 14:57:56Z,u01, 10,100,movements,wr-su, rt, d,125581.367748125, 0.04909175656974062, 0.8296838100560747, -0.02405444904219028, 0.11606898158788681, -0.035545021295547485, 0.08080332726240158, 0.03312898054718971, -0.7377179265022278, -0.6742957830429077, -0.013918161392211914, -0.005415678024291992, 0.012186408042907715, 0.4031648044169258, 0.017614078534889915, 0.9149572515445386,-0.0011121058783771787,0.0230255126953125,-0.7302093505859375,-0.675872802734375
20230118-1457,2023-01-18 14:57:56Z,u01, 11,100,movements,wr-su, rt, d,125581.377771125, 0.04895849468767855, 0.8308597636459961, -0.02371891048948115, 0.16412678360939026, -0.03595035523176193, 0.07847583293914795, 0.03299664333462715, -0.738511323928833, -0.6734331846237183, -0.003699779510498047, 0.020646274089813232, -0.015714704990386963, 0.40369955795671286, 0.017608569934103258, 0.914721678461971,-0.0009694867796168349,0.03778076171875,-0.7077484130859375,-0.70391845703125
20230118-1457,2023-01-18 14:57:56Z,u01, 12,100,movements,wr-su, rt, d,125581.38779412501, 0.048671673965758444, 0.832842910801802, -0.023405881336032042, 0.17912410199642181, -0.06043678894639015, 0.07428029179573059, 0.032732170075178146, -0.7398470044136047, -0.6719784736633301, 0.008970111608505249, 0.03954482078552246, -0.045474469661712646, 0.404603260832761, 0.01752021408129406, 0.9143241236175026,-0.0008574571212046633,0.04791259765625,-0.6970367431640625,-0.7271270751953125
20230118-1457,2023-01-18 14:57:56Z,u01, 13,100,movements,wr-su, rt, d,125581.397817125, 0.04792619339304956, 0.8352417413732934, -0.023018924766903048, 0.1708611100912094, -0.09209778159856796, 0.06697060167789459, 0.03214609622955322, -0.7414587140083313, -0.6702280640602112, 0.020008444786071777, 0.04281973838806152, -0.06162923574447632, 0.405695684755504, 0.01723343175176864, 0.9138454334943475,-0.0007995019325390817,0.052276611328125,-0.7051239013671875,-0.7335205078125
20230118-1457,2023-01-18 14:57:56Z,u01, 14,100,movements,wr-su, rt, d,125581.40783912501, 0.04669144718993298, 0.8375106651196857, -0.022433685945400048, 0.1443144530057907, -0.09644859284162521, 0.06572450697422028, 0.031239908188581467, -0.7429792881011963, -0.6685850620269775, 0.01662692427635193, 0.031934916973114014, -0.06257033348083496, 0.4067264403143409, 0.01676557924504407, 0.913395906574852,-0.0007531908327221837,0.0360565185546875,-0.7162322998046875,-0.7269287109375
20230118-1457,2023-01-18 14:57:56Z,u01, 15,100,movements,wr-su, rt, d,125581.417862125, 0.04504365088248158, 0.8395010484718383, -0.021404906052498975, 0.12006621807813644, -0.06363525241613388, 0.07351294904947281, 0.030071524903178215, -0.7443100214004517, -0.6671569347381592, -0.007717400789260864, 0.02024984359741211, -0.050662219524383545, 0.4076260230711286, 0.01620339356656622, 0.9130050481125369,-0.0005936384428500419,0.0069427490234375,-0.73016357421875,-0.7039794921875
20230118-1457,2023-01-18 14:57:56Z,u01, 16,100,movements,wr-su, rt, d,125581.42788512501, 0.04347700994127521, 0.8412146597963531, -0.02006458881885984, 0.0927877202630043, -0.02071893773972988, 0.07436729222536087, 0.028970811516046524, -0.7454532980918884, -0.6659279465675354, -0.033228009939193726, 0.009094655513763428, -0.02144986391067505, 0.40839697788101625, 0.01574594118635203, 0.9126685388684835,-0.0002805628702762242,-0.0143280029296875,-0.7433013916015625,-0.671417236328125
20230118-1457,2023-01-18 14:57:56Z,u01, 17,100,movements,wr-su, rt, d,125581.437907125, 0.04230079239455659, 0.8425748455370303, -0.01878723090334457, 0.06011400371789932, 0.010193437337875366, 0.05494837462902069, 0.028144611045718193, -0.7463592886924744, -0.6649478673934937, -0.04932379722595215, -0.00554811954498291, 0.009460866451263428, 0.40900745029779084, 0.01545831497131861, 0.9124000728586222,7.790047415195955e-05,-0.024658203125,-0.7616119384765625,-0.6407928466796875
20230118-1457,2023-01-18 14:57:56Z,u01, 18,100,movements,wr-su, rt, d,125581.44793012501, 0.04181954819300731, 0.8429980739875761, -0.01802181411755905, 0.01966218650341034, 0.029644900932908058, 0.023692984133958817, 0.02781139872968197, -0.7466408610343933, -0.6646457314491272, -0.052027106285095215, -0.020998358726501465, 0.03242838382720947, 0.4091946056126413, 0.01539175056252537, 0.9123172657315537,0.0003334847863761259,-0.024078369140625,-0.7671051025390625,-0.6240386962890625
20230118-1457,2023-01-18 14:57:56Z,u01, 19,100,movements,wr-su, rt, d,125581.457953125, 0.04217385639404767, 0.8423281421255645, -0.017972039568469586, -0.0015478366985917091, 0.04240543767809868, -0.010514892637729645, 0.028067968785762787, -0.7461950778961182, -0.6651354432106018, -0.048453688621520996, -0.01675969362258911, 0.04564398527145386, 0.40888859919049314, 0.015569189573226339, 0.9124513875851981,0.0004210051325967412,-0.0174407958984375,-0.758270263671875,-0.6228485107421875
20230118-1457,2023-01-18 14:57:56Z,u01, 20,100,movements,wr-su, rt, d,125581.46797512501, 0.04314370237801251, 0.8408931402512778, -0.0185123810702918, -0.015647143125534058, 0.04501906409859657, -0.028253676369786263, 0.028759188950061798, -0.7452389597892761, -0.666176974773407, -0.0419580340385437, -0.010208427906036377, 0.03450900316238403, 0.4082379940542225, 0.015913568503667153, 0.9127367410643356,0.0003559309623022977,-0.011688232421875,-0.7469635009765625,-0.639923095703125
20230118-1457,2023-01-18 14:57:56Z,u01, 21,100,movements,wr-su, rt, d,125581.477998125, 0.04456385331678059, 0.8391805907642311, -0.019447995839700406, -0.01674080826342106, 0.050920359790325165, -0.039706096053123474, 0.029762044548988342, -0.7440959215164185, -0.6674095392227173, -0.03884100914001465, 0.008744359016418457, 0.018056511878967285, 0.40746378988036047, 0.016386077670667437, 0.9130743318376945,0.00019801729337437513,-0.008880615234375,-0.7273406982421875,-0.6583251953125
20230118-1457,2023-01-18 14:57:56Z,u01, 22,100,movements,wr-su, rt, d,125581.48802112501, 0.04598310485837446, 0.8376156601194281, -0.020409684645665664, -0.009033886715769768, 0.04970009997487068, -0.04302625730633736, 0.030762724578380585, -0.7430495619773865, -0.6685289740562439, -0.03764444589614868, 0.021110475063323975, -0.0012401938438415527, 0.406757279863067, 0.016852699088792167, 0.9133808104253887,2.844390707512634e-05,-0.005035400390625,-0.718475341796875,-0.682159423828125
20230118-1457,2023-01-18 14:57:56Z,u01, 23,100,movements,wr-su, rt, d,125581.49804412501, 0.046533627974729264, 0.8365318630381686, -0.02070783513383169, 0.012185628525912762, 0.04510375112295151, -0.03222327679395676, 0.031168203800916672, -0.7423238158226013, -0.6693160533905029, -0.033060282468795776, 0.025008082389831543, -0.02303624153137207, 0.4062648809220409, 0.017053727783830547, 0.9135962207026795,-9.551704744426015e-06,0.001190185546875,-0.7177581787109375,-0.700408935546875
20230118-1457,2023-01-18 14:57:56Z,u01, 24,100,movements,wr-su, rt, d,125581.50806612501, 0.04597776468708381, 0.8363164634891437, -0.020139476373788767, 0.02207208052277565, 0.04188665375113487, -0.018315717577934265, 0.0308034997433424, -0.7421794533729553, -0.6694929599761963, -0.02645474672317505, 0.023017406463623047, -0.040254294872283936, 0.4061616827498582, 0.016917257137188613, 0.9136446546157204,0.00013445786102689317,0.0068206787109375,-0.720733642578125,-0.713958740234375
20230118-1457,2023-01-18 14:57:56Z,u01, 25,100,movements,wr-su, rt, d,125581.518089125, 0.0446462078124081, 0.8370371826719633, -0.018933724711465805, 0.029935577884316444, 0.04151194542646408, -0.002763789612799883, 0.029888125136494637, -0.7426623106002808, -0.6689988970756531, -0.018001526594161987, 0.01571822166442871, -0.04645514488220215, 0.40648092283610315, 0.01654744643747952, 0.913509372004132,0.0004235998494003801,0.019500732421875,-0.734619140625,-0.715057373046875
20230118-1457,2023-01-18 14:57:56Z,u01, 26,100,movements,wr-su, rt, d,125581.528112125, 0.04295395879684668, 0.8385778523196421, -0.017330261259059777, 0.05958135426044464, 0.026330595836043358, 0.029559530317783356, 0.028706800192594528, -0.7436931133270264, -0.6679045557975769, -0.002782106399536133, 0.002054929733276367, -0.044177353382110596, 0.4071718643092019, 0.01608755703050005, 0.9132095066003247,0.0008298943362200495,0.0350189208984375,-0.7452239990234375,-0.703643798828125
20230118-1457,2023-01-18 14:57:56Z,u01, 27,100,movements,wr-su, rt, d,125581.538134125, 0.040927196127043985, 0.8405955048645816, -0.015564806631344309, 0.09020312130451202, -0.020501356571912766, 0.040501419454813004, 0.027291610836982727, -0.7450404763221741, -0.6664607524871826, 0.01848474144935608, -0.0004277229309082031, -0.024884402751922607, 0.4080798688120878, 0.015505954116277865, 0.9128137632247497,0.0012454499293249044,0.0555419921875,-0.7406463623046875,-0.67913818359375
20230118-1457,2023-01-18 14:57:56Z,u01, 28,100,movements,wr-su, rt, d,125581.54815712501, 0.03867166208346547, 0.8423555282253902, -0.014012353184084158, 0.0859932005405426, -0.07334460318088531, 0.03511730581521988, 0.0257375780493021, -0.7462132573127747, -0.6652092337608337, 0.03786104917526245, 0.009869813919067383, -0.0010657310485839844, 0.4088727249066384, 0.014780687000053444, 0.9124704860625674,0.001511842646095718,0.0720367431640625,-0.7381134033203125,-0.65777587890625
20230118-1457,2023-01-18 14:57:56Z,u01, 29,100,movements,wr-su, rt, d,125581.55818012501, 0.03591014293183045, 0.8432018797890125, -0.012407876674838362, 0.047764718532562256, -0.11616929620504379, 0.04936657473444939, 0.023877808824181557, -0.7467764616012573, -0.664646327495575, 0.05470496416091919, 0.003200352191925049, 0.013599634170532227, 0.40924955165949517, 0.013843279249454526, 0.9123158665036464,0.0016873286781167174,0.0840911865234375,-0.7529449462890625,-0.6422882080078125
20230118-1457,2023-01-18 14:57:56Z,u01, 30,100,movements,wr-su, rt, d,125581.56820212501, 0.03276498058787907, 0.8429192768233137, -0.010641546756312752, -0.013281323947012424, -0.14869341254234314, 0.07243940234184265, 0.021794188767671585, -0.7465884685516357, -0.6649290919303894, 0.06537926197052002, -0.018792450428009033, 0.030606091022491455, 0.40911164884245743, 0.0127716362455855, 0.912393077586412,0.0018470712983823523,0.089935302734375,-0.7775421142578125,-0.63018798828125
20230118-1457,2023-01-18 14:57:56Z,u01, 31,100,movements,wr-su, rt, d,125581.578225125, 0.02939137835210398, 0.8417185750082958, -0.008665713895756698, -0.08593802154064178, -0.16749639809131622, 0.11806297302246094, 0.01957719214260578, -0.745789110660553, -0.6658944487571716, 0.07485944032669067, -0.0454859733581543, 0.045517921447753906, 0.40855505709930107, 0.011642738162546101, 0.9126571485748532,0.002049251187746348,0.09954833984375,-0.801116943359375,-0.6080474853515625
20230118-1457,2023-01-18 14:57:56Z,u01, 32,100,movements,wr-su, rt, d,125581.588248125, 0.025575961218288208, 0.8398343814750645, -0.006198329195621113, -0.14940008521080017, -0.2035745084285736, 0.1717752069234848, 0.017072295770049095, -0.744532585144043, -0.6673678159713745, 0.08822861313819885, -0.06027704477310181, 0.06946748495101929, 0.4076857479842985, 0.010413244248152265, 0.9130597854469193,0.0023836174540342037,0.109039306640625,-0.80609130859375,-0.592529296875
20230118-1457,2023-01-18 14:57:56Z,u01, 33,100,movements,wr-su, rt, d,125581.598270125, 0.020833137597179887, 0.8374932890257062, -0.00305735400770745, -0.20197586715221405, -0.26341894268989563, 0.2293810248374939, 0.013943178579211235, -0.7429676651954651, -0.6691820025444031, 0.10162690281867981, -0.06165879964828491, 0.08852416276931763, 0.4066077651349199, 0.008894837376711262, 0.9135550347631853,0.0028389382711134226,0.123321533203125,-0.8013916015625,-0.5621490478515625
20230118-1457,2023-01-18 14:57:56Z,u01, 34,100,movements,wr-su, rt, d,125581.60829312501, 0.015304586543686891, 0.8348955259805101, 0.0006372995382791297, -0.25559568405151367, -0.31002238392829895, 0.27291759848594666, 0.01027288194745779, -0.7412263751029968, -0.671176552772522, 0.11771783232688904, -0.05271899700164795, 0.12993210554122925, 0.4054145468427143, 0.007124281942561678, 0.914098960424268,0.0033937056787052278,0.1266326904296875,-0.7875213623046875,-0.5222930908203125
20230118-1457,2023-01-18 14:57:56Z,u01, 35,100,movements,wr-su, rt, d,125581.61831612501, 0.009111662127756872, 0.8319019678261522, 0.004762687609330579, -0.3283330202102661, -0.3510228097438812, 0.32056924700737, 0.006136355921626091, -0.7392136454582214, -0.673443078994751, 0.11453014612197876, -0.04665982723236084, 0.16927748918533325, 0.4040447253277525, 0.005129534955755438, 0.91471605639503,0.004019085016363777,0.1137237548828125,-0.79656982421875,-0.4899749755859375
20230118-1457,2023-01-18 14:57:56Z,u01, 36,100,movements,wr-su, rt, d,125581.628339125, 0.0018551421445186466, 0.8281964234181879, 0.009899497548934207, -0.42082566022872925, -0.3793146312236786, 0.4238314628601074, 0.0012544566998258233, -0.7367129921913147, -0.6762043833732605, 0.10718974471092224, -0.0848354697227478, 0.19527798891067505, 0.40235522815767966, 0.0028407562777345297, 0.9154660663045632,0.004904590461358549,0.10565185546875,-0.8533477783203125,-0.4752960205078125
20230118-1457,2023-01-18 14:57:56Z,u01, 37,100,movements,wr-su, rt, d,125581.638361125, -0.006795464909169894, 0.823623486490812, 0.016857510058720843, -0.511621356010437, -0.3670041859149933, 0.5690877437591553, -0.004617941100150347, -0.7336130142211914, -0.6795517206192017, 0.11057499051094055, -0.1462850570678711, 0.20909279584884644, 0.40027998493100225, 0.0002601649994573296, 0.9163707405407779,0.006363990718838419,0.11004638671875,-0.8985137939453125,-0.46142578125
20230118-1457,2023-01-18 14:57:56Z,u01, 38,100,movements,wr-su, rt, d,125581.648384125, -0.016535539230512316, 0.818340644570761, 0.02579227301646902, -0.5593830347061157, -0.31342190504074097, 0.700083315372467, -0.011300426907837391, -0.7300127744674683, -0.6833400726318359, 0.12261328101158142, -0.1697065234184265, 0.2356625199317932, 0.3978993948840739, -0.002454170461711702, 0.9173860425852647,0.008541836921523993,0.1096649169921875,-0.8935699462890625,-0.43670654296875
20230118-1457,2023-01-18 14:57:56Z,u01, 39,100,movements,wr-su, rt, d,125581.65840712501, -0.027448465365094737, 0.8123761203893035, 0.036733279080332415, -0.5899856686592102, -0.27960190176963806, 0.8191154599189758, -0.018876012414693832, -0.725923478603363, -0.687516450881958, 0.12655729055404663, -0.15891849994659424, 0.24809390306472778, 0.39523810419446637, -0.005349260566456376, 0.9184918284467032,0.011448172580785565,0.1094207763671875,-0.8723297119140625,-0.4372100830078125
20230118-1457,2023-01-18 14:57:56Z,u01, 40,100,movements,wr-su, rt, d,125581.66842912501, -0.03896183619434328, 0.8065457422502835, 0.04909608103700137, -0.5089440941810608, -0.24295200407505035, 0.930571973323822, -0.02695462293922901, -0.7219011783599854, -0.6914710402488708, 0.13892361521720886, -0.14345532655715942, 0.2564125061035156, 0.3926778622619256, -0.008281046720446994, 0.9195176209623674,0.014930158358028633,0.1107940673828125,-0.867767333984375,-0.4471588134765625
20230118-1457,2023-01-18 14:57:56Z,u01, 41,100,movements,wr-su, rt, d,125581.67845212501, -0.051720785812492724, 0.8015670690005808, 0.06330878690033422, -0.3946678042411804, -0.26623043417930603, 1.0822856426239014, -0.03595999255776405, -0.7184469699859619, -0.6946515440940857, 0.13866692781448364, -0.14822173118591309, 0.22078990936279297, 0.3905676118115986, -0.01145306856594061, 0.9203058569643479,0.019048355777568804,0.091522216796875,-0.8597564697265625,-0.4940338134765625
20230118-1457,2023-01-18 14:57:56Z,u01, 42,100,movements,wr-su, rt, d,125581.688475125, -0.06555574911554225, 0.7976329376344579, 0.07939024957679923, -0.26236623525619507, -0.1842932254076004, 1.1944658756256104, -0.045751530677080154, -0.7157049179077148, -0.6969025731086731, 0.12924763560295105, -0.13628482818603516, 0.19879472255706787, 0.38901213575724003, -0.014773906871119485, 0.9208057060514444,0.023834389970851633,0.0680084228515625,-0.8447418212890625,-0.508087158203125
20230118-1457,2023-01-18 14:57:56Z,u01, 43,100,movements,wr-su, rt, d,125581.698497125, -0.07929666328436756, 0.7945361145965003, 0.09677277265511534, -0.18865378201007843, -0.08348778635263443, 1.2737152576446533, -0.05549829080700874, -0.713538646697998, -0.6984142661094666, 0.09477442502975464, -0.11269420385360718, 0.15982484817504883, 0.3879119772299275, -0.017809506449820378, 0.9210600487568665,0.029247668010362715,0.0077056884765625,-0.798553466796875,-0.5769195556640625
20230118-1457,2023-01-18 14:57:56Z,u01, 44,100,movements,wr-su, rt, d,125581.708520125, -0.0927492672035764, 0.7919839771808104, 0.11517318513477796, -0.09472303837537766, 0.02410978637635708, 1.3419761657714844, -0.0650569275021553, -0.7117483019828796, -0.6994154453277588, 0.046944744884967804, -0.05940037965774536, 0.08811789751052856, 0.3871318680049415, -0.020523304669513548, 0.921123858528567,0.03519203028893969,-0.036041259765625,-0.7528839111328125,-0.6484832763671875
20230118-1457,2023-01-18 14:57:56Z,u01, 45,100,movements,wr-su, rt, d,125581.71854312501, -0.10538767897883845, 0.7901707857686586, 0.13446775279300435, -0.001953607425093651, 0.1909317970275879, 1.3868387937545776, -0.07402662932872772, -0.7104734778404236, -0.6998196244239807, 0.03069165349006653, -0.02811300754547119, 0.02379429340362549, 0.3867503014557559, -0.022680103767734328, 0.9209621668117738,0.04169563081386013,-0.052276611328125,-0.72125244140625,-0.686920166015625
20230118-1457,2023-01-18 14:57:56Z,u01, 46,100,movements,wr-su, rt, d,125581.728566125, -0.11663832014396885, 0.7889011269464389, 0.1541747918016743, 0.04078240320086479, 0.33407455682754517, 1.3986544609069824, -0.08200010657310486, -0.7095794081687927, -0.699837863445282, 0.015242911875247955, 0.006118714809417725, 0.008477449417114258, 0.38665232284861983, -0.024105269236097432, 0.9206262223670245,0.048643465577714706,-0.0801849365234375,-0.689666748046875,-0.69439697265625
20230118-1457,2023-01-18 14:57:56Z,u01, 47,100,movements,wr-su, rt, d,125581.73858812501, -0.12692854404103285, 0.7874696918407802, 0.17393345538240096, 0.004578936845064163, 0.41086867451667786, 1.3962970972061157, -0.08932561427354813, -0.7085700631141663, -0.6999638676643372, 0.000946730375289917, 0.032102108001708984, -0.0016657114028930664, 0.3865079851564113, -0.02509267126482187, 0.9202538473657083,0.05581043874794178,-0.0882110595703125,-0.6631622314453125,-0.699920654296875
20230118-1457,2023-01-18 14:57:56Z,u01, 48,100,movements,wr-su, rt, d,125581.748611125, -0.1360475522113064, 0.7856139059780586, 0.19345710517218245, -0.005769041366875172, 0.5312063097953796, 1.3843075037002563, -0.09588297456502914, -0.7072592973709106, -0.7004218101501465, 0.009350389242172241, 0.060362935066223145, 0.01377636194229126, 0.3861771531299156, -0.025618132507988556, 0.9199059379794117,0.06311925313776179,-0.091339111328125,-0.63031005859375,-0.6699066162109375
20230118-1457,2023-01-18 14:57:56Z,u01, 49,100,movements,wr-su, rt, d,125581.75863412501, -0.14375061626285845, 0.7838615746802182, 0.2128660602764488, 0.03956303745508194, 0.6593011617660522, 1.3888075351715088, -0.10145285725593567, -0.706019401550293, -0.7008879780769348, -0.0024900436401367188, 0.0747632384300232, 0.04390561580657959, 0.3858818258393406, -0.025519391688294674, 0.919485122173643,0.07064786381267607,-0.1116943359375,-0.651336669921875,-0.6562347412109375
20230118-1457,2023-01-18 14:57:56Z,u01, 50,100,movements,wr-su, rt, d,125581.76865550001, -0.1504620894115796, 0.7825175347018688, 0.23252380190958744, 0.09006855636835098, 0.762886643409729, 1.408935546875, -0.10629666596651077, -0.7050669193267822, -0.7011288404464722, -0.008251063525676727, 0.025608301162719727, 0.04066747426986694, 0.38576626555032667, -0.024899374611281055, 0.9189168365236184,0.0784617021082965,-0.113800048828125,-0.6962890625,-0.66937255859375
20230118-1457,2023-01-18 14:57:56Z,u01, 51,100,movements,wr-su, rt, d,125581.7786785, -0.15646744663299877, 0.7812868571025597, 0.25241973097419645, 0.09057386964559555, 0.8308819532394409, 1.409435749053955, -0.11064038425683975, -0.704193651676178, -0.7013344168663025, -0.0011760294437408447, 0.0068517327308654785, 0.040674686431884766, 0.38569580163884337, -0.02390682393814253, 0.9182498055979226,0.08651314353592665,-0.106170654296875,-0.6960906982421875,-0.6378173828125
20230118-1457,2023-01-18 14:57:56Z,u01, 52,100,movements,wr-su, rt, d,125581.7887015, -0.16150214156199127, 0.7795095052594921, 0.2719053226743207, -0.03206309676170349, 0.8984000086784363, 1.3839678764343262, -0.11437104642391205, -0.7029306292533875, -0.7020026445388794, 0.01691315323114395, -0.005168735980987549, 0.08772969245910645, 0.38534155913406287, -0.022595289394462537, 0.9176345141248655,0.09459479446817315,-0.090911865234375,-0.728485107421875,-0.60357666015625
20230118-1457,2023-01-18 14:57:56Z,u01, 53,100,movements,wr-su, rt, d,125581.7987235, -0.16530556942844812, 0.7758394909397172, 0.2906744418847518, -0.2655734717845917, 0.9666997194290161, 1.378296136856079, -0.11746394634246826, -0.7003155946731567, -0.7041024565696716, 0.03013789653778076, -0.04918092489242554, 0.1111917495727539, 0.38406613993829514, -0.021023269213529427, 0.9173343013003937,0.10270785010451916,-0.0833587646484375,-0.7755889892578125,-0.5802459716796875
20230118-1457,2023-01-18 14:57:56Z,u01, 54,100,movements,wr-su, rt, d,125581.80874650001, -0.16788770305316772, 0.7695219245497338, 0.30894757890858143, -0.555858850479126, 1.0657330751419067, 1.416495442390442, -0.12001857161521912, -0.6957919597625732, -0.7081449031829834, 0.04531154781579971, -0.11506015062332153, 0.13825970888137817, 0.3815196453850589, -0.01924368214960609, 0.917468559005134,0.11101344620863013,-0.0640869140625,-0.8455810546875,-0.5604095458984375
20230118-1457,2023-01-18 14:57:56Z,u01, 55,100,movements,wr-su, rt, d,125581.81876950001, -0.16915751206491558, 0.7600938711269506, 0.3270859091223335, -0.8692198991775513, 1.184442400932312, 1.4779428243637085, -0.12201666831970215, -0.6889894604682922, -0.7144266366958618, 0.07500434666872025, -0.17931193113327026, 0.17135119438171387, 0.3774786253276232, -0.017220856479442936, 0.9180830173247123,0.11973699999595627,-0.02642822265625,-0.8737030029296875,-0.518524169921875
20230118-1457,2023-01-18 14:57:56Z,u01, 56,100,movements,wr-su, rt, d,125581.8287925, -0.16910576608791406, 0.7475998845918533, 0.34502353980113776, -1.1400660276412964, 1.2659326791763306, 1.5150680541992188, -0.1234189122915268, -0.679880678653717, -0.7228624224662781, 0.1159878671169281, -0.17868566513061523, 0.22628045082092285, 0.37194613405928045, -0.014995742297070153, 0.9191453757684553,0.12885249562119389,0.0146942138671875,-0.83062744140625,-0.48187255859375
20230118-1457,2023-01-18 14:57:56Z,u01, 57,100,movements,wr-su, rt, d,125581.8388145, -0.16803038383878638, 0.7329765356974298, 0.36275476330304707, -1.292540192604065, 1.3361616134643555, 1.5558342933654785, -0.12429104745388031, -0.6690847277641296, -0.7327191829681396, 0.16065272688865662, -0.13851726055145264, 0.25035834312438965, 0.3653497640675105, -0.012647651339476845, 0.9204623324034634,0.13823420939617564,0.0554046630859375,-0.7920989990234375,-0.4877777099609375
20230118-1457,2023-01-18 14:57:56Z,u01, 58,100,movements,wr-su, rt, d,125581.8488375, -0.1660227328000562, 0.7174709652362657, 0.38081353086629155, -1.2971956729888916, 1.452078104019165, 1.6266709566116333, -0.12451943010091782, -0.6574811935424805, -0.7431106567382812, 0.1913681924343109, -0.12132740020751953, 0.25272369384765625, 0.35825178985494377, -0.010016652043659147, 0.9217629558509836,0.14801527701784678,0.069976806640625,-0.7664947509765625,-0.499176025390625
20230118-1457,2023-01-18 14:57:56Z,u01, 59,100,movements,wr-su, rt, d,125581.85886050001, -0.163235240167592, 0.7023497648214314, 0.3997991118359002, -1.1864476203918457, 1.5679993629455566, 1.7085916996002197, -0.12404914945363998, -0.646013081073761, -0.7531791925430298, 0.1939648985862732, -0.10616898536682129, 0.23984307050704956, 0.35122947700742135, -0.00694574479908272, 0.9227766853986381,0.1583443473529249,0.0662689208984375,-0.7286529541015625,-0.527557373046875
20230118-1457,2023-01-18 14:57:56Z,u01, 60,100,movements,wr-su, rt, d,125581.86888250001, -0.1603914688897858, 0.6891056406095062, 0.4202422624695364, -0.908332884311676, 1.597190499305725, 1.8184330463409424, -0.12326245754957199, -0.6358471512794495, -0.7619086503982544, 0.1854114830493927, -0.07042115926742554, 0.22576063871383667, 0.3450120490919012, -0.0035167746746642414, 0.9232103740199438,0.1692245388713257,0.063690185546875,-0.6826171875,-0.5577545166015625
20230118-1457,2023-01-18 14:57:56Z,u01, 61,100,movements,wr-su, rt, d,125581.87890550001, -0.15868850846818555, 0.6788133866470641, 0.4426086784536909, -0.5903896689414978, 1.5594083070755005, 1.9158954620361328, -0.12299245595932007, -0.6278699040412903, -0.7685390710830688, 0.19064989686012268, -0.023695647716522217, 0.18731659650802612, 0.34019181034502405, -6.814130697971321e-05, 0.9228536590261014,0.18058442542901937,0.0767059326171875,-0.6227264404296875,-0.5892791748046875
20230118-1457,2023-01-18 14:57:56Z,u01, 62,100,movements,wr-su, rt, d,125581.8889285, -0.15780517621048823, 0.6707705038634992, 0.46584316697350925, -0.4508824050426483, 1.5059937238693237, 1.9114644527435303, -0.12310315668582916, -0.621589720249176, -0.7736095786094666, 0.20551586151123047, 0.01934051513671875, 0.18834352493286133, 0.3364286088696141, 0.0033152423576666146, 0.9219138945836234,0.19204058471742574,0.081695556640625,-0.58935546875,-0.58514404296875
20230118-1457,2023-01-18 14:57:56Z,u01, 63,100,movements,wr-su, rt, d,125581.8989505, -0.15693359744290616, 0.6634448060530219, 0.4889749999799808, -0.44547489285469055, 1.535011887550354, 1.9025001525878906, -0.12313723564147949, -0.6158345937728882, -0.7781934142112732, 0.2038867175579071, 0.021733582019805908, 0.19233226776123047, 0.33295444658743106, 0.006680416316414112, 0.9207222376521764,0.2033894638511347,0.08380126953125,-0.6141204833984375,-0.558807373046875
20230118-1457,2023-01-18 14:57:56Z,u01, 64,100,movements,wr-su, rt, d,125581.9089735, -0.1547838325423659, 0.655798796210726, 0.5116601471225456, -0.514668881893158, 1.676758885383606, 1.8705073595046997, -0.12218639254570007, -0.6097925305366516, -0.7830859422683716, 0.19832772016525269, -0.025629281997680664, 0.26947516202926636, 0.32916266730614807, 0.010438433788040519, 0.9194679030284595,0.21476007616433523,0.053619384765625,-0.65191650390625,-0.4832916259765625
20230118-1457,2023-01-18 14:57:56Z,u01, 65,100,movements,wr-su, rt, d,125581.91899650001, -0.1504539877318927, 0.6474726935190108, 0.5337568405838369, -0.5986616611480713, 1.8590165376663208, 1.8550209999084473, -0.11955148726701736, -0.6031725406646729, -0.7886002659797668, 0.14463692903518677, -0.06221747398376465, 0.3068345785140991, 0.32477237662731484, 0.014925941096903234, 0.9182099173874211,0.22625351122778659,0.0008544921875,-0.6695098876953125,-0.500457763671875
20230118-1457,2023-01-18 14:57:56Z,u01, 66,100,movements,wr-su, rt, d,125581.92901850001, -0.14408374758387982, 0.6384899423444202, 0.5554539931127626, -0.6686204671859741, 1.9964159727096558, 1.838215708732605, -0.11529885977506638, -0.5959835648536682, -0.794675886631012, 0.10512122511863708, -0.06640052795410156, 0.26632511615753174, 0.3197780259383797, 0.020101308281523317, 0.9169151988957893,0.2379169915942036,-0.006317138671875,-0.6467437744140625,-0.5587615966796875
20230118-1457,2023-01-18 14:57:56Z,u01, 67,100,movements,wr-su, rt, d,125581.93904150001, -0.1363342680441565, 0.6292932626053522, 0.5766163752547179, -0.6553837656974792, 2.0338125228881836, 1.7845646142959595, -0.10987745970487595, -0.5885735750198364, -0.800942063331604, 0.12077222019433975, -0.03628915548324585, 0.21357029676437378, 0.31443414087788324, 0.02569338567069132, 0.9155348306318688,0.2495337114922469,0.0399627685546875,-0.6036376953125,-0.6147918701171875
20230118-1457,2023-01-18 14:57:56Z,u01, 68,100,movements,wr-su, rt, d,125581.9490645, -0.1282902198040924, 0.6215106431962601, 0.5972523172161116, -0.45479604601860046, 1.9673722982406616, 1.7396067380905151, -0.10401405394077301, -0.5822640061378479, -0.8063186407089233, 0.17655432224273682, 0.002185821533203125, 0.16097867488861084, 0.30959932940050994, 0.03144736686707625, 0.9138595764763036,0.26080646166844673,0.102203369140625,-0.5513153076171875,-0.694580078125
20230118-1457,2023-01-18 14:57:56Z,u01, 69,100,movements,wr-su, rt, d,125581.95908750001, -0.12101976018099421, 0.6160935823620615, 0.6176379094552519, -0.20130802690982819, 1.8570961952209473, 1.6819957494735718, -0.09852839261293411, -0.577851414680481, -0.8101727962493896, 0.22174310684204102, 0.06779581308364868, 0.06757336854934692, 0.30584055075739874, 0.03708317115284199, 0.9117588702166951,0.2716288206698124,0.1294708251953125,-0.467926025390625,-0.7618408203125
20230118-1457,2023-01-18 14:57:56Z,u01, 70,100,movements,wr-su, rt, d,125581.9691095, -0.11406853920059704, 0.6128199206860909, 0.6368728478832523, -0.10879939794540405, 1.7309317588806152, 1.5006749629974365, -0.09310918301343918, -0.5751765370368958, -0.812713086605072, 0.2162323296070099, 0.13183236122131348, 0.0591273307800293, 0.3030229352129607, 0.04266781898703259, 0.9094011732655785,0.28168414374888034,0.0999755859375,-0.42498779296875,-0.714569091796875
20230118-1457,2023-01-18 14:57:56Z,u01, 71,100,movements,wr-su, rt, d,125581.97913250001, -0.1071305952965706, 0.6108188568841477, 0.6546004026213317, 0.0034345383755862713, 1.69977867603302, 1.4327235221862793, -0.08759132772684097, -0.5735384225845337, -0.8144823312759399, 0.15410436689853668, 0.1652895212173462, 0.06111013889312744, 0.30072895863307414, 0.048176069437739444, 0.9069745388710393,0.2909268600613826,0.04400634765625,-0.4246978759765625,-0.81719970703125
20230118-1457,2023-01-18 14:57:56Z,u01, 72,100,movements,wr-su, rt, d,125581.9891555, -0.10018921643763751, 0.6096465716061051, 0.6713466795554025, 0.06309813261032104, 1.5669095516204834, 1.31119704246521, -0.08200282603502274, -0.572577714920044, -0.815739095211029, 0.10835470259189606, 0.10922926664352417, -0.020579814910888672, 0.29875289664909876, 0.05363909747165771, 0.9044822169282958,0.29963566139636555,0.00250244140625,-0.4969940185546875,-0.871429443359375
20230118-1457,2023-01-18 14:57:56Z,u01, 73,100,movements,wr-su, rt, d,125581.99917750001, -0.09436360958300524, 0.6091623693278991, 0.6869692324270199, 0.04974846914410591, 1.3938860893249512, 1.265671968460083, -0.07727539539337158, -0.5721806883811951, -0.8164789080619812, 0.0709124356508255, 0.029791712760925293, -0.15976309776306152, 0.29721413644193706, 0.05851760185864975, 0.9020118994656858,0.3075939565881705,0.009674072265625,-0.5646209716796875,-1.0647125244140625
20230118-1457,2023-01-18 14:57:56Z,u01, 74,100,movements,wr-su, rt, d,125582.0092005, -0.08993453716251182, 0.6083664752305459, 0.7027065625251991, 0.031538039445877075, 1.2707370519638062, 1.3095296621322632, -0.07369928807020187, -0.5715277791023254, -0.8172664642333984, 0.10932852327823639, 0.046762704849243164, -0.27775001525878906, 0.2956926177589869, 0.06271083261728513, 0.8995327140827115,0.3153953903270591,0.0605316162109375,-0.478363037109375,-1.11041259765625
20230118-1457,2023-01-18 14:57:56Z,u01, 75,100,movements,wr-su, rt, d,125582.01922350001, -0.08705131424039608, 0.6067946026572008, 0.7180825061499301, -0.15975159406661987, 1.0672351121902466, 1.207783818244934, -0.07142063975334167, -0.5702372193336487, -0.8183695077896118, 0.1438082903623581, 0.0957956314086914, -0.3201802968978882, 0.2940389554396634, 0.0660025634370443, 0.8971952406205276,0.32283989488727777,0.06182861328125,-0.4927215576171875,-1.1734619140625
20230118-1457,2023-01-18 14:57:56Z,u01, 76,100,movements,wr-su, rt, d,125582.0292455, -0.08435553873763849, 0.6026320490846383, 0.7319456276567842, -0.4928587079048157, 1.0714447498321533, 1.1649874448776245, -0.06941363215446472, -0.5668128132820129, -0.8209171295166016, 0.09968703985214233, 0.06580573320388794, -0.37463951110839844, 0.2912863471046683, 0.06851056706406315, 0.895391481339689,0.3297462945201877,-0.0123291015625,-0.5091400146484375,-1.1952362060546875
20230118-1457,2023-01-18 14:57:56Z,u01, 77,100,movements,wr-su, rt, d,125582.03926850001, -0.0813182357784454, 0.5949224499122633, 0.7458225908080047, -0.8482867479324341, 1.0714784860610962, 1.235081434249878, -0.06727290898561478, -0.5604445338249207, -0.8254551887512207, 0.022412054240703583, 0.050114333629608154, -0.356444776058197, 0.2868829507631525, 0.07050231641711419, 0.8939772324639753,0.33694550413660723,-0.059539794921875,-0.49041748046875,-1.1698150634765625
20230118-1457,2023-01-18 14:57:56Z,u01, 78,100,movements,wr-su, rt, d,125582.0492915, -0.07889672410491318, 0.5841463389326315, 0.759691559804292, -1.1099090576171875, 0.9487316608428955, 1.2304315567016602, -0.06574606150388718, -0.5514874458312988, -0.8315882682800293, 0.004909232258796692, 0.08589601516723633, -0.3346409201622009, 0.28120990557696324, 0.07160198959305682, 0.8929081578128352,0.3442518598207312,-0.0537261962890625,-0.455230712890625,-1.1660308837890625
20230118-1457,2023-01-18 14:57:56Z,u01, 79,100,movements,wr-su, rt, d,125582.05931350001, -0.07731689705021576, 0.5707862683220172, 0.7733492642021202, -1.3824936151504517, 0.8574256896972656, 1.2664178609848022, -0.06499554961919785, -0.54029381275177, -0.8389625549316406, 0.02538369596004486, 0.07563316822052002, -0.3180808424949646, 0.27453900227667805, 0.07174296595981539, 0.8921451092211837,0.35150892432280606,-0.02777099609375,-0.478271484375,-1.142059326171875
20230118-1457,2023-01-18 14:57:56Z,u01, 80,100,movements,wr-su, rt, d,125582.0693365, -0.07649649129438145, 0.5547551205493171, 0.7873782280133121, -1.6140216588974, 0.7988750338554382, 1.3429534435272217, -0.06496086716651917, -0.5267351865768433, -0.8475435972213745, 0.04100453853607178, 0.039232075214385986, -0.2781277894973755, 0.2668088720846862, 0.07100163530490222, 0.8915681776276313,0.3589956859115597,-0.02618408203125,-0.49969482421875,-1.115203857421875
20230118-1457,2023-01-18 14:57:56Z,u01, 81,100,movements,wr-su, rt, d,125582.07935950001, -0.07629288417406883, 0.5368230976073253, 0.8019973092105688, -1.7682002782821655, 0.7549994587898254, 1.410672664642334, -0.06549777090549469, -0.5114085674285889, -0.8568379878997803, 0.0357736200094223, -0.017491638660430908, -0.25485628843307495, 0.2583380320245021, 0.06958779701884837, 0.8910076068004852,0.36677581294268163,-0.03338623046875,-0.56439208984375,-1.1061248779296875
20230118-1457,2023-01-18 14:57:56Z,u01, 82,100,movements,wr-su, rt, d,125582.08938250001, -0.0764890671042261, 0.5175112218238405, 0.8169833774717981, -1.8725532293319702, 0.7074918746948242, 1.4667942523956299, -0.06640826165676117, -0.4947187900543213, -0.86651211977005, 0.030168607831001282, -0.09002858400344849, -0.22478115558624268, 0.24933508840361804, 0.06764576821860488, 0.8904068468317148,0.3747422299440541,-0.038330078125,-0.5871124267578125,-1.0755462646484375
20230118-1457,2023-01-18 14:57:56Z,u01, 83,100,movements,wr-su, rt, d,125582.09940450001, -0.07724863052548421, 0.49752530029721326, 0.8325213294266324, -1.9011167287826538, 0.6414276361465454, 1.5398383140563965, -0.06781600415706635, -0.477252334356308, -0.8761456608772278, 0.030965998768806458, -0.10310053825378418, -0.18331778049468994, 0.24014581287269243, 0.06524687594746839, 0.889636735224995,0.3829091038667459,-0.03509521484375,-0.566802978515625,-1.0383758544921875
20230118-1457,2023-01-18 14:57:56Z,u01, 84,100,movements,wr-su, rt, d,125582.1094275, -0.07866292131098516, 0.4771738440372151, 0.8484257716000675, -1.9424532651901245, 0.5546833872795105, 1.5689482688903809, -0.06980395317077637, -0.45927053689956665, -0.8855495452880859, 0.037211135029792786, -0.08713147044181824, -0.12226295471191406, 0.2309420033023452, 0.06237809957160029, 0.8886867886450192,0.3911656055360524,-0.0332794189453125,-0.5221099853515625,-0.9768524169921875
20230118-1457,2023-01-18 14:57:56Z,u01, 85,100,movements,wr-su, rt, d,125582.1194505, -0.08058497463521948, 0.456343967504559, 0.8642468364028636, -1.9909436702728271, 0.4951587915420532, 1.575758934020996, -0.07226041704416275, -0.44066914916038513, -0.8947564959526062, 0.03492210805416107, -0.056340187788009644, -0.0549352765083313, 0.22167083321943742, 0.059023730324778895, 0.8876405899917619,0.3993401599723947,-0.0363616943359375,-0.477325439453125,-0.9256591796875
20230118-1457,2023-01-18 14:57:56Z,u01, 86,100,movements,wr-su, rt, d,125582.1294725, -0.08224015593945612, 0.4344684774908268, 0.8796452606389166, -2.15822172164917, 0.502193033695221, 1.541391372680664, -0.07451548427343369, -0.42092832922935486, -0.9040281176567078, 0.0381384938955307, -0.030518263578414917, 0.004858195781707764, 0.21194403190131977, 0.05536856114456859, 0.886586906211025,0.4074036964495227,-0.0430145263671875,-0.40771484375,-0.8718719482421875
20230118-1457,2023-01-18 14:57:56Z,u01, 87,100,movements,wr-su, rt, d,125582.13949550001, -0.08304033909537137, 0.41021457501370967, 0.8941687449196397, -2.472439765930176, 0.5217124223709106, 1.4977437257766724, -0.07606343179941177, -0.398806095123291, -0.9138752818107605, 0.019697412848472595, 0.03744742274284363, 0.05614829063415527, 0.20106471283462618, 0.05133546470070657, 0.885705107571441,0.4152881837938824,-0.068511962890625,-0.328521728515625,-0.8677978515625
20230118-1457,2023-01-18 14:57:56Z,u01, 88,100,movements,wr-su, rt, d,125582.14951850001, -0.08348494790194191, 0.3824775733427088, 0.9078352461620575, -2.83345103263855, 0.4363253116607666, 1.472291350364685, -0.07736261934041977, -0.37322017550468445, -0.9245116114616394, 0.0034947842359542847, 0.06149831414222717, 0.03077387809753418, 0.18864342461659225, 0.04645258773363152, 0.8850613225115749,0.42299221152551814,-0.067657470703125,-0.30975341796875,-0.9267730712890625
20230118-1457,2023-01-18 14:57:56Z,u01, 89,100,movements,wr-su, rt, d,125582.15954050001, -0.08411650969254982, 0.35187195544353495, 0.9208063285392997, -3.033060312271118, 0.3647203743457794, 1.4440721273422241, -0.0788695365190506, -0.3446556627750397, -0.9354100823402405, 0.028546012938022614, 0.033254265785217285, -0.021026015281677246, 0.1750588261266961, 0.040612292382929, 0.8845336911261572,0.43047077830465824,-0.0322265625,-0.2973785400390625,-0.970306396484375
20230118-1457,2023-01-18 14:57:56Z,u01, 90,100,movements,wr-su, rt, d,125582.1695635, -0.08484984772898399, 0.32005334614954034, 0.9327970340610129, -3.099822759628296, 0.26761218905448914, 1.3338953256607056, -0.08044444769620895, -0.31461718678474426, -0.9458037614822388, 0.05212409049272537, 0.058742523193359375, -0.03312385082244873, 0.16102536651066404, 0.03419008055168442, 0.8840268126101147,0.437491148437608,-0.033233642578125,-0.18829345703125,-0.9875030517578125
20230118-1457,2023-01-18 14:57:56Z,u01, 91,100,movements,wr-su, rt, d,125582.1795865, -0.0858791801800579, 0.2883122223793237, 0.943089353480641, -3.037217617034912, 0.14270487427711487, 1.157057285308838, -0.08223336189985275, -0.2843345105648041, -0.9551919102668762, 0.041400790214538574, 0.1733878254890442, -0.04340428113937378, 0.14715931972778967, 0.027352973521490673, 0.883615821077993,0.4436429871795745,-0.0449371337890625,-0.04937744140625,-1.023468017578125
20230118-1457,2023-01-18 14:57:56Z,u01, 92,100,movements,wr-su, rt, d,125582.1896085, -0.08715641040954838, 0.25761506923647215, 0.9514308166577002, -2.9276747703552246, 0.04720471799373627, 0.969753623008728, -0.08417361974716187, -0.2547750473022461, -0.9633299112319946, 0.035025015473365784, 0.2501973807811737, -0.08804643154144287, 0.13386675033504436, 0.020365296133610947, 0.8833268399344875,0.44877478220737277,-0.0565032958984375,0.0379180908203125,-1.07159423828125
20230118-1457,2023-01-18 14:57:56Z,u01, 93,100,movements,wr-su, rt, d,125582.19963150001, -0.08879417860666242, 0.22826270064966697, 0.957770972057189, -2.801501989364624, -0.0735536590218544, 0.7707799077033997, -0.0863773375749588, -0.2262856364250183, -0.9702235460281372, 0.019986294209957123, 0.30241167545318604, -0.12865334749221802, 0.12129121543013303, 0.013291198227313346, 0.8831952333002318,0.452855473401977,-0.0758056640625,0.1047210693359375,-1.126007080078125
20230118-1457,2023-01-18 14:57:56Z,u01, 94,100,movements,wr-su, rt, d,125582.20965450001, -0.09102472031852087, 0.20058855423159788, 0.9621859536678381, -2.6300957202911377, -0.1762632578611374, 0.5860132575035095, -0.08907650411128998, -0.1992461234331131, -0.9758926033973694, 0.005214162170886993, 0.3208739161491394, -0.17861783504486084, 0.10961664881749662, 0.006155636107836489, 0.8832294875633888,0.4559078427431235,-0.0935516357421875,0.1272735595703125,-1.1748046875
20230118-1457,2023-01-18 14:57:56Z,u01, 95,100,movements,wr-su, rt, d,125582.2196775, -0.093873297724804, 0.1745751617250766, 0.964835314595791, -2.499865770339966, -0.30955687165260315, 0.4090774655342102, -0.09231074899435043, -0.17368976771831512, -0.9804644584655762, -0.015156939625740051, 0.30540362000465393, -0.20985835790634155, 0.09882684666481398, -0.0010078310186073872, 0.8834289416691568,0.458023581435527,-0.1248016357421875,0.1290435791015625,-1.1961212158203125
20230118-1457,2023-01-18 14:57:57Z,u01, 96,100,movements,wr-su, rt, d,125582.2296995, -0.09823519464528879, 0.15028506265727432, 0.9654901446094378, -2.332336187362671, -0.5250403881072998, 0.1783023178577423, -0.0969717875123024, -0.1497199833393097, -0.9839615821838379, -0.04168488085269928, 0.2575995922088623, -0.2160506248474121, 0.08914023650975006, -0.008557190914945348, 0.8838704855724852,0.45907940029398997,-0.1461944580078125,0.079864501953125,-1.19879150390625
20230118-1457,2023-01-18 14:57:57Z,u01, 97,100,movements,wr-su, rt, d,125582.2397225, -0.10378954605796196, 0.127517847052795, 0.9639798179552715, -2.233157157897949, -0.6204052567481995, -0.007313666865229607, -0.10276211053133011, -0.1271725445985794, -0.9865429997444153, -0.051183849573135376, 0.21967129409313202, -0.19210684299468994, 0.08037668454686775, -0.01637335855655335, 0.8846155029556575,0.45905013543063156,-0.171051025390625,0.1573333740234375,-1.1268463134765625
20230118-1457,2023-01-18 14:57:57Z,u01, 98,100,movements,wr-su, rt, d,125582.24974550001, -0.11001363469031855, 0.10567940859775311, 0.9609810241603072, -2.1770241260528564, -0.6842231154441833, -0.10489828139543533, -0.10917934030294418, -0.1054828092455864, -0.9884094595909119, -0.08363077044487, 0.3295885920524597, -0.08516842126846313, 0.07214057517357916, -0.02431068950842875, 0.8855335269813354,0.45829602140592274,-0.2069854736328125,0.25567626953125,-1.047088623046875
20230118-1457,2023-01-18 14:57:57Z,u01, 99,100,movements,wr-su, rt, d,125582.25976750001, -0.11661466465382177, 0.08288913076140064, 0.9569720861406412, -2.532283067703247, -0.7132568955421448, -0.1814713031053543, -0.1159510686993599, -0.08279424905776978, -0.9897981882095337, -0.09263661503791809, 0.3252563774585724, -0.03705728054046631, 0.06352554618131424, -0.03264059050988492, 0.8865352621570419,0.45711529877777546,-0.2086639404296875,0.213287353515625,-0.9801788330078125
20230118-1457,2023-01-18 14:57:57Z,u01, 100,100,movements,wr-su, rt, d,125582.26979050001, -0.12376772137451701, 0.05320656656902594, 0.9508583351480203, -3.571838617324829, -0.8209596872329712, -0.31276941299438477, -0.12327727675437927, -0.05318146571516991, -0.9909462332725525, -0.08740086108446121, 0.22452238202095032, 0.06510400772094727, 0.051902211143930455, -0.04281403380741407, 0.8878334804393593,0.45521960937236106,-0.211639404296875,0.0961456298828125,-0.899322509765625
20230118-1457,2023-01-18 14:57:57Z,u01, 101,100,movements,wr-su, rt, d,125582.2798135, -0.13267160109211498, 0.011607168916258492, 0.9417451244383913, -4.884562015533447, -0.9927766919136047, -0.42017433047294617, -0.1322738230228424, -0.011606908403337002, -0.9911452531814575, -0.07321631908416748, -0.012715636752545834, 0.0930587649345398, 0.035232189233261026, -0.05644524601903608, 0.8893722519741736,0.45231581289815376,-0.19854736328125,-0.165252685546875,-0.92340087890625
20230118-1457,2023-01-18 14:57:57Z,u01, 102,100,movements,wr-su, rt, d,125582.2898355, -0.14280009595473897, -0.04097198538649629, 0.9299642816669678, -5.759654998779297, -0.9748746752738953, -0.461876779794693, -0.14219582080841064, 0.04096052423119545, -0.9889906644821167, -0.06004418432712555, -0.30814194679260254, 0.040550172328948975, 0.013719305399231281, -0.07291389493138759, 0.8907098627492338,0.4484766886021301,-0.22637939453125,-0.2894287109375,-0.9615631103515625
20230118-1457,2023-01-18 14:57:57Z,u01, 103,100,movements,wr-su, rt, d,125582.2998585, -0.15310010460515217, -0.09913948139675635, 0.916239929862737, -6.05564546585083, -0.9004645943641663, -0.5343766808509827, -0.15175387263298035, 0.09897716343402863, -0.983450174331665, -0.11280304193496704, -0.3218318223953247, 0.010885536670684814, -0.010529405767375988, -0.09035504020755361, 0.8914847764375028,0.4438244403284275,-0.2961883544921875,-0.085723876953125,-0.981201171875
20230118-1457,2023-01-18 14:57:57Z,u01, 104,100,movements,wr-su, rt, d,125582.30988150001, -0.1637924660647154, -0.15670720957382994, 0.9010501928865796, -5.709329128265381, -0.8364683389663696, -0.6175746321678162, -0.16106301546096802, 0.15606661140918732, -0.9745265245437622, -0.14939235150814056, -0.0888058990240097, -0.010718226432800293, -0.03471543581391878, -0.10738521082297195, 0.8916605605507859,0.4384116099602915,-0.3003387451171875,0.1971435546875,-0.998199462890625
20230118-1457,2023-01-18 14:57:57Z,u01, 105,100,movements,wr-su, rt, d,125582.31990450001, -0.1747833333102014, -0.2097468060586321, 0.8849823741546893, -5.281213760375977, -0.8126404881477356, -0.7095758318901062, -0.1700836420059204, 0.2082122564315796, -0.9631817936897278, -0.10831299424171448, 0.09432370960712433, -0.06246817111968994, -0.05707069809955901, -0.12309357782077261, 0.8913807421274729,0.43247105616007464,-0.2567291259765625,0.403778076171875,-1.0678863525390625
20230118-1457,2023-01-18 14:57:57Z,u01, 106,100,movements,wr-su, rt, d,125582.32992650001, -0.18667807109578277, -0.2593769220845269, 0.8682109948514856, -5.119864463806152, -0.7370527982711792, -0.6894199252128601, -0.17938752472400665, 0.25647836923599243, -0.9497573375701904, -0.05547580122947693, 0.21472826600074768, -0.16779637336730957, -0.07794702165649045, -0.13800581233897252, 0.8906420198807826,0.4261870502335505,-0.2020263671875,0.4734039306640625,-1.1275482177734375
20230118-1457,2023-01-18 14:57:57Z,u01, 107,100,movements,wr-su, rt, d,125582.3399495, -0.1996820367008609, -0.30822117306885227, 0.8515329838816735, -5.001564025878906, -0.9173466563224792, -0.5662296414375305, -0.18901002407073975, 0.3033641278743744, -0.9339407682418823, 0.012114852666854858, 0.14350473880767822, -0.1718788743019104, -0.09842102056429994, -0.152783849646685, 0.889127973495862,0.42002591657308325,-0.1750640869140625,0.3910369873046875,-1.1421661376953125
20230118-1457,2023-01-18 14:57:57Z,u01, 108,100,movements,wr-su, rt, d,125582.34997250001, -0.2146448181943018, -0.35509014243492665, 0.8362454485367365, -4.743249416351318, -1.090760350227356, -0.321451336145401, -0.19971241056919098, 0.3476748764514923, -0.9160988330841064, 0.022222131490707397, -0.059909433126449585, -0.20868754386901855, -0.11765990929610147, -0.16765057311668177, 0.8866303580223405,0.4146517007614117,-0.17230224609375,0.218109130859375,-1.0866546630859375
20230118-1457,2023-01-18 14:57:57Z,u01, 109,100,movements,wr-su, rt, d,125582.3599945, -0.23098291004109048, -0.3987436790499676, 0.8234263990758329, -4.248717308044434, -1.2220001220703125, -0.08851099759340286, -0.21097442507743835, 0.3882609009742737, -0.8970748782157898, 0.05539576709270477, -0.18690595030784607, -0.16899573802947998, -0.13509327165206692, -0.18224264026606946, 0.8831658190085342,0.41055530980999855,-0.14434814453125,0.1906280517578125,-1.034881591796875
20230118-1457,2023-01-18 14:57:57Z,u01, 110,100,movements,wr-su, rt, d,125582.37001750001, -0.24748302077422732, -0.4369420623555657, 0.8127863576219312, -3.624702215194702, -1.1942862272262573, -0.007420406676828861, -0.22195002436637878, 0.423170804977417, -0.8784444332122803, 0.0650133341550827, -0.23525884747505188, -0.12901711463928223, -0.14993191609807904, -0.19569923503442055, 0.8792874300454944,0.4075240900402585,-0.1989593505859375,0.2167205810546875,-0.98138427734375
20230118-1457,2023-01-18 14:57:57Z,u01, 111,100,movements,wr-su, rt, d,125582.38004050001, -0.26271194883044396, -0.4692016193950727, 0.8038025163967225, -3.0332581996917725, -1.0590285062789917, 0.0904150977730751, -0.2316344827413559, 0.4521743357181549, -0.8613268136978149, -0.01925058662891388, -0.1833297312259674, -0.07177865505218506, -0.162258259061887, -0.20738575458929465, 0.8754879898952704,0.40519662616361024,-0.2891845703125,0.32550048828125,-0.8838043212890625
20230118-1457,2023-01-18 14:57:57Z,u01, 112,100,movements,wr-su, rt, d,125582.39006250001, -0.2756717515708754, -0.4965455473873857, 0.7972550907434518, -2.556507110595703, -0.9360071420669556, 0.2325456142425537, -0.2393215447664261, 0.47639110684394836, -0.846035897731781, -0.0651676207780838, -0.10287126898765564, -0.005160391330718994, -0.17261861751375054, -0.21722079400391242, 0.8717588847339099,0.4037999459036557,-0.3068389892578125,0.41107177734375,-0.83685302734375
20230118-1457,2023-01-18 14:57:57Z,u01, 113,100,movements,wr-su, rt, d,125582.4000855, -0.28668212312356905, -0.5202031461500607, 0.7924929944655844, -2.2433218955993652, -0.7894933223724365, 0.2707618176937103, -0.24536582827568054, 0.49705642461776733, -0.8323043584823608, -0.06403666734695435, -0.06143328547477722, -0.00499117374420166, -0.18153840907346702, -0.22559171495426922, 0.8681641268411289,0.4030426227071,-0.320098876953125,0.4483795166015625,-0.84063720703125
20230118-1457,2023-01-18 14:57:57Z,u01, 114,100,movements,wr-su, rt, d,125582.41010850001, -0.295509646418824, -0.541669302303476, 0.7883891526123327, -2.090817928314209, -0.5698440670967102, 0.28739726543426514, -0.24953801929950714, 0.5155670642852783, -0.8197081089019775, -0.08456847071647644, -0.060321152210235596, -0.015252768993377686, -0.1898458350838617, -0.2326037295866748, 0.8648295032535012,0.40239787117734743,-0.3465118408203125,0.45587158203125,-0.8306884765625
20230118-1457,2023-01-18 14:57:57Z,u01, 115,100,movements,wr-su, rt, d,125582.4201305, -0.3026497186989816, -0.5620270049798377, 0.7844028946407801, -1.9867223501205444, -0.44493547081947327, 0.26011526584625244, -0.25220340490341187, 0.5329024791717529, -0.80771803855896, -0.09688720107078552, -0.0847061276435852, -0.03658127784729004, -0.19798393677818926, -0.23862804595079928, 0.8616977728249832,0.4016666613964123,-0.3359375,0.429595947265625,-0.87042236328125
20230118-1457,2023-01-18 14:57:57Z,u01, 116,100,movements,wr-su, rt, d,125582.43015350001, -0.30913052529702767, -0.580969320895479, 0.7804844263318028, -1.8140393495559692, -0.4399169981479645, 0.2625664174556732, -0.25431570410728455, 0.548834502696991, -0.7963066101074219, -0.06021374464035034, -0.13460415601730347, -0.08127212524414062, -0.2056140022574511, -0.2440687814890383, 0.8587347507206724,0.40090891754444535,-0.29071044921875,0.4207305908203125,-0.8634796142578125
20230118-1457,2023-01-18 14:57:57Z,u01, 117,100,movements,wr-su, rt, d,125582.44017650001, -0.31534264418794083, -0.597493956108241, 0.7780006132212024, -1.436408281326294, -0.5221703052520752, 0.37330716848373413, -0.25640949606895447, 0.5625723600387573, -0.7859812378883362, -0.005568712949752808, -0.11030185222625732, -0.03730672597885132, -0.21204176947113526, -0.2490937065284621, 0.8558073120777208,0.4007298788447394,-0.228515625,0.5022430419921875,-0.7531280517578125
20230118-1457,2023-01-18 14:57:57Z,u01, 118,100,movements,wr-su, rt, d,125582.4501995, -0.32050271279622916, -0.6103082479037834, 0.7784072281539481, -0.9630751013755798, -0.5383021235466003, 0.49428367614746094, -0.2581693232059479, 0.5731201171875, -0.7777416110038757, 0.0630551278591156, 0.0015564560890197754, 0.11152762174606323, -0.21665868382396608, -0.25335393347554447, 0.8529695795548197,0.4016388298684145,-0.1822662353515625,0.6797943115234375,-0.590972900390625
20230118-1457,2023-01-18 14:57:57Z,u01, 119,100,movements,wr-su, rt, d,125582.4602215, -0.3230577262007452, -0.6181893924078133, 0.7824836337575136, -0.3367813229560852, -0.43844881653785706, 0.6214656829833984, -0.25871360301971436, 0.5795605778694153, -0.7727721333503723, 0.07231217622756958, 0.21171444654464722, 0.21227103471755981, -0.2191265641025981, -0.2561200391917878, 0.8505069063354342,0.40376239754073134,-0.1946868896484375,0.8673248291015625,-0.5595703125
20230118-1457,2023-01-18 14:57:57Z,u01, 120,100,movements,wr-su, rt, d,125582.47024450001, -0.3222933587411382, -0.6219249371444642, 0.7894303734059862, -0.1078789234161377, -0.19568195939064026, 0.7043405771255493, -0.25743529200553894, 0.5826007723808289, -0.7709107995033264, 0.04469722509384155, 0.32880669832229614, 0.18587356805801392, -0.22004690560361867, -0.25714579953385475, 0.848568558911519,0.40667780142756216,-0.2498321533203125,0.937591552734375,-0.613555908203125
20230118-1457,2023-01-18 14:57:57Z,u01, 121,100,movements,wr-su, rt, d,125582.48026750001, -0.3186857134986962, -0.6265482791283817, 0.7981672345323225, -0.3409920334815979, -0.15424397587776184, 0.930622935295105, -0.2538057863712311, 0.5863521695137024, -0.7692683339118958, -0.03337991237640381, 0.3406345248222351, 0.14255934953689575, -0.22170657278317096, -0.2573169872033674, 0.8464666726274934,0.41003456629324764,-0.29180908203125,0.8121185302734375,-0.6417083740234375
20230118-1457,2023-01-18 14:57:57Z,u01, 122,100,movements,wr-su, rt, d,125582.49028950001, -0.3150679790078809, -0.6350147094547107, 0.8078547930854806, -0.8601172566413879, -0.25403687357902527, 1.0800433158874512, -0.24947379529476166, 0.5931893587112427, -0.7654339671134949, -0.00679759681224823, -0.012485682964324951, 0.07096076011657715, -0.22494202211100964, -0.2582326413204547, 0.8434959590500695,0.41380125692497804,-0.2274169921875,0.3425750732421875,-0.733673095703125
20230118-1457,2023-01-18 14:57:57Z,u01, 123,100,movements,wr-su, rt, d,125582.50031250001, -0.31157362972408237, -0.6493395541184375, 0.8176228073690155, -1.3041222095489502, -0.2181699573993683, 1.2856208086013794, -0.24416744709014893, 0.6046605110168457, -0.7581345438957214, 0.00806814432144165, -0.3893132209777832, 0.009538352489471436, -0.23070815136618206, -0.26020467760011246, 0.8394486253010648,0.4176043730355002,-0.2562103271484375,0.1932525634765625,-0.761749267578125
20230118-1457,2023-01-18 14:57:57Z,u01, 124,100,movements,wr-su, rt, d,125582.5103355, -0.3070845402675581, -0.6654701901685457, 0.8282272898457305, -1.1950937509536743, -0.17133401334285736, 1.241997241973877, -0.23778215050697327, 0.6174290776252747, -0.7498273253440857, -0.024119749665260315, -0.39703112840652466, -0.028645634651184082, -0.23733825338300127, -0.26221536312809196, 0.834981914032376,0.42156715044812876,-0.2541656494140625,0.2786102294921875,-0.796539306640625
20230118-1457,2023-01-18 14:57:57Z,u01, 125,100,movements,wr-su, rt, d,125582.52035850001, -0.30230392883246443, -0.6772106621761369, 0.8379334611584902, -0.477617472410202, -0.07596062868833542, 0.8807432055473328, -0.2320205718278885, 0.626621663570404, -0.7439836859703064, -0.020069926977157593, -0.27298396825790405, -0.040394365787506104, -0.24220353297240516, -0.26333554367801515, 0.8314674799432167,0.4250336703329367,-0.264007568359375,0.415313720703125,-0.7374114990234375
20230118-1457,2023-01-18 14:57:57Z,u01, 126,100,movements,wr-su, rt, d,125582.53038050001, -0.29592991571649035, -0.6771948411528441, 0.8467770442956187, 0.8788899779319763, 0.28441566228866577, 0.4535157084465027, -0.22727662324905396, 0.6266093254089355, -0.7454569935798645, -0.06256413459777832, -0.16376447677612305, 0.0574687123298645, -0.24239492616708036, -0.2617560060882711, 0.8304213264207385,0.4279357502945353,-0.329498291015625,0.5741424560546875,-0.6373291015625
20230118-1457,2023-01-18 14:57:57Z,u01, 127,100,movements,wr-su, rt, d,125582.54040350001, -0.28435783891623884, -0.6638921222159607, 0.8566989010076274, 2.1081106662750244, 0.7532713413238525, 0.29795798659324646, -0.22095417976379395, 0.6161869168281555, -0.7559714913368225, -0.14090806245803833, 0.2042170763015747, 0.162175714969635, -0.23780451585714563, -0.25585789408029785, 0.8321360430006315,0.4307381832431987,-0.3561553955078125,1.1273956298828125,-0.572296142578125
20230118-1457,2023-01-18 14:57:57Z,u01, 129,100,movements,wr-su, rt, d,125582.56044850001, -0.2533360109164676, -0.6019854403624947, 0.8803650535757721, 3.9366774559020996, 0.9083219170570374, -0.09341518580913544, -0.20657651126384735, 0.5662800073623657, -0.797905445098877, 0.05612480640411377, 0.818561851978302, 0.13828325271606445, -0.21464890923786734, -0.2344634936005104, 0.8411212524084399,0.43757024211950935,-0.2172088623046875,1.4228515625,-0.622344970703125
20230118-1457,2023-01-18 14:57:57Z,u01, 129,100,movements,wr-su, rt, d,125582.5504265, -0.26893392134593996, -0.637858287905056, 0.8686604071441217, 3.3646066188812256, 0.8531310558319092, 0.0935254618525505, -0.21345926821231842, 0.5954762101173401, -0.7744954824447632, -0.08475854992866516, 0.7531718015670776, 0.19266259670257568, -0.2283009251994569, -0.24623351335779595, 0.8359415821322378,0.43410772705331024,-0.1215972900390625,1.2771148681640625,-0.678619384765625
20230118-1457,2023-01-18 14:57:57Z,u01, 131,100,movements,wr-su, rt, d,125582.5704715, -0.23864109087275284, -0.5637659662823327, 0.8901120986812905, 3.747438907623291, 0.9404215216636658, -0.17178189754486084, -0.1998019516468048, 0.5343731641769409, -0.821294367313385, 0.08162258565425873, 0.5718737244606018, 0.14795458316802979, -0.20005849179511637, -0.22210224036824294, 0.8465450375008647,0.4404640641775211,-0.1331024169921875,0.8963775634765625,-0.656982421875
20230118-1457,2023-01-18 14:57:57Z,u01, 131,100,movements,wr-su, rt, d,125582.58049450001, -0.22547106701734002, -0.5301232201351214, 0.8973901211095078, 3.038578987121582, 0.9337500333786011, -0.15661601722240448, -0.19287998974323273, 0.5056396722793579, -0.8409077525138855, 0.041314393281936646, 0.1784271001815796, 0.182811439037323, -0.1874433621008716, -0.21073943336302223, 0.8512433555030017,0.4425365878398789,-0.1625518798828125,0.492889404296875,-0.6668701171875
20230118-1457,2023-01-18 14:57:57Z,u01, 132,100,movements,wr-su, rt, d,125582.5905165, -0.21352013666868164, -0.5040336526068282, 0.9025519040159051, 2.214113473892212, 0.9404012560844421, -0.10461992770433426, -0.18554967641830444, 0.482961505651474, -0.8557567000389099, 0.014849558472633362, -0.1379908323287964, 0.1801585555076599, -0.17811393762485264, -0.200990249834608, 0.8549155557554804,0.4438442665489962,-0.1800994873046875,0.26251220703125,-0.6815948486328125
20230118-1457,2023-01-18 14:57:57Z,u01, 133,100,movements,wr-su, rt, d,125582.60053950001, -0.2029725150166973, -0.48619478646571246, 0.905786873161073, 1.4034534692764282, 0.8416259288787842, -0.08092224597930908, -0.17822188138961792, 0.4672650098800659, -0.865967869758606, -0.012482509016990662, -0.2143048644065857, 0.18110764026641846, -0.1723015938180553, -0.19320511311662997, 0.8575847025493678,0.4444463170681974,-0.194580078125,0.290130615234375,-0.67510986328125
20230118-1457,2023-01-18 14:57:57Z,u01, 134,100,movements,wr-su, rt, d,125582.6105625, -0.1946378583573984, -0.47542748494469167, 0.9071546560041683, 0.754474937915802, 0.6962173581123352, -0.10953976958990097, -0.17196138203144073, 0.45771855115890503, -0.8723089694976807, -0.015553906559944153, -0.1168982982635498, 0.18046027421951294, -0.16929007699953175, -0.1875803117048252, 0.8594479989321958,0.4444137214656584,-0.180419921875,0.379852294921875,-0.7237548828125
20230118-1457,2023-01-18 14:57:57Z,u01, 135,100,movements,wr-su, rt, d,125582.62058450001, -0.18812958953046643, -0.46961150608877866, 0.906951230672163, 0.4677828550338745, 0.6281155347824097, -0.1394963562488556, -0.16677561402320862, 0.4525398910045624, -0.876010000705719, -0.012149006128311157, -0.05649802088737488, 0.1218443512916565, -0.16819592060935473, -0.183589548031777, 0.8608245738140679,0.4438311460411827,-0.181121826171875,0.3834075927734375,-0.80023193359375
20230118-1457,2023-01-18 14:57:57Z,u01, 136,100,movements,wr-su, rt, d,125582.6306075, -0.18145674723375066, -0.4626122985030596, 0.9072767888401236, 0.9782453775405884, 0.6881045699119568, -0.04045260325074196, -0.16149412095546722, 0.4462873339653015, -0.880197286605835, -0.027699649333953857, -0.0890180766582489, 0.01926589012145996, -0.16656626031768695, -0.17932382533283303, 0.8622188996266176,0.44348315250602177,-0.2017669677734375,0.3512115478515625,-0.91680908203125
20230118-1457,2023-01-18 14:57:57Z,u01, 137,100,movements,wr-su, rt, d,125582.64063050001, -0.17249948788289016, -0.4481539733296519, 0.9101643754631353, 2.026716947555542, 0.8461751937866211, 0.030058978125452995, -0.1546950489282608, 0.43330255150794983, -0.8878729343414307, -0.057905688881874084, -0.03091302514076233, -0.050451040267944336, -0.16193319923306984, -0.17274596745453913, 0.8641001845634069,0.44414793618945564,-0.22235107421875,0.5025787353515625,-0.948974609375
20230118-1457,2023-01-18 14:57:57Z,u01, 138,100,movements,wr-su, rt, d,125582.65065350001, -0.1611390262953532, -0.4220352450846203, 0.9154506252285276, 3.212611198425293, 0.9688539505004883, 0.03333120420575142, -0.14636489748954773, 0.40961796045303345, -0.9004390239715576, -0.08698780834674835, 0.19621697068214417, -0.07983136177062988, -0.15250728583941264, -0.16285578766029446, 0.866866842099327,0.4458267973706343,-0.2359619140625,0.666900634765625,-1.0023193359375
20230118-1457,2023-01-18 14:57:57Z,u01, 139,100,movements,wr-su, rt, d,125582.66067550001, -0.1488039310934709, -0.3866530083989284, 0.9212719401950525, 3.849841833114624, 1.0244865417480469, -0.07467638701200485, -0.13731063902378082, 0.3770906329154968, -0.9159412980079651, -0.09109823405742645, 0.3145902752876282, -0.08160203695297241, -0.13919628790050995, -0.15051160753973233, 0.8703020559108565,0.44782259548296477,-0.2118072509765625,0.6736297607421875,-0.9839935302734375
20230118-1457,2023-01-18 14:57:57Z,u01, 140,100,movements,wr-su, rt, d,125582.6706985, -0.13681244913803636, -0.34739799944486266, 0.9258627507046606, 3.969630241394043, 1.0350995063781738, -0.1925707906484604, -0.12823858857154846, 0.3404524028301239, -0.9314757585525513, -0.059353023767471313, 0.2717301845550537, -0.027127206325531006, -0.12420948159864352, -0.1372375282306687, 0.8739467566913436,0.44939403790788096,-0.1642303466796875,0.5389404296875,-0.912322998046875
20230118-1457,2023-01-18 14:57:57Z,u01, 141,100,movements,wr-su, rt, d,125582.6807215, -0.12523827880240462, -0.307970717284967, 0.9288160180148961, 3.8831162452697754, 1.0940868854522705, -0.28688952326774597, -0.11903416365385056, 0.30312544107437134, -0.9454870820045471, -0.031905822455883026, 0.18720045685768127, 0.07298952341079712, -0.10916733136277071, -0.12385052332285457, 0.8774771778442344,0.4503080364021318,-0.1569061279296875,0.4727783203125,-0.85455322265625
20230118-1457,2023-01-18 14:57:57Z,u01, 142,100,movements,wr-su, rt, d,125582.6907435, -0.1133055516139372, -0.26983223476275997, 0.9302443769990542, 3.6803946495056152, 1.1984775066375732, -0.341248095035553, -0.10897214710712433, 0.26656973361968994, -0.9576354622840881, -0.06920477747917175, 0.21711856126785278, 0.11756283044815063, -0.09485898616140606, -0.11038139716564625, 0.8808077612827914,0.45055002817586964,-0.2054595947265625,0.50201416015625,-0.8194580078125
20230118-1457,2023-01-18 14:57:57Z,u01, 143,100,movements,wr-su, rt, d,125582.70076650001, -0.10069947747245524, -0.2339512531467004, 0.9308260877172672, 3.5019640922546387, 1.2685878276824951, -0.29187294840812683, -0.09779075533151627, 0.2318229377269745, -0.9678301215171814, -0.12092877179384232, 0.2723121643066406, 0.1701921820640564, -0.08173060492763762, -0.09697968459605513, 0.8837684770986091,0.4504091354855192,-0.2131500244140625,0.47052001953125,-0.77117919921875
20230118-1457,2023-01-18 14:57:57Z,u01, 144,100,movements,wr-su, rt, d,125582.71078950001, -0.08824552538790313, -0.20118126923146679, 0.9310409230157811, 2.835489511489868, 1.1676037311553955, -0.3260383605957031, -0.08635354042053223, 0.1998269110918045, -0.9760186076164246, -0.10169580578804016, 0.20121978223323822, 0.20581597089767456, -0.0699480828706875, -0.08424948385965271, 0.8862173796962995,0.45014222936487747,-0.146270751953125,0.332855224609375,-0.8038787841796875
20230118-1457,2023-01-18 14:57:57Z,u01, 145,100,movements,wr-su, rt, d,125582.72081150001, -0.07880586842316989, -0.17879874526896045, 0.9290139394606439, 1.6555155515670776, 0.8003634810447693, -0.40329840779304504, -0.07746930420398712, 0.17784759402275085, -0.9810039401054382, -0.028655610978603363, 0.08655667304992676, 0.16760367155075073, -0.06218169607781843, -0.07504309217475393, 0.8882054073988759,0.44899109498637935,-0.082489013671875,0.13140869140625,-0.9161376953125
20230118-1457,2023-01-18 14:57:57Z,u01, 146,100,movements,wr-su, rt, d,125582.7308345, -0.07145913827708521, -0.1646819728229105, 0.9274252174189649, 1.154212236404419, 0.7569065690040588, -0.08104128390550613, -0.07043235749006271, 0.16393861174583435, -0.9839529395103455, 0.008924141526222229, -0.23977483808994293, -0.14397668838500977, -0.05759218851148229, -0.06860512371864431, 0.889484819999966,0.448099621782726,-0.042755126953125,-0.2387542724609375,-1.3010406494140625
20230118-1457,2023-01-18 14:57:57Z,u01, 147,100,movements,wr-su, rt, d,125582.7408575, -0.06363494869329198, -0.1535162590335585, 0.9292963662791507, 1.1438182592391968, 0.7016334533691406, 0.2653864920139313, -0.06284413486719131, 0.15291397273540497, -0.9862393140792847, 0.03432542085647583, -0.38353532552719116, -0.38006317615509033, -0.05430482159573973, -0.06270041751623859, 0.8898027817145808,0.4487435356011529,-0.0168609619140625,-0.102996826171875,-1.4011383056640625
20230118-1457,2023-01-18 14:57:57Z,u01, 148,100,movements,wr-su, rt, d,125582.7508795, -0.05807772027596107, -0.1423690803173648, 0.9328699125180282, 1.0747613906860352, 0.26305365562438965, 0.2754844129085541, -0.0574578121304512, 0.14188861846923828, -0.9882136583328247, 0.05875476449728012, -0.12331870198249817, -0.4707859754562378, -0.05047592562113356, -0.05783904882731737, 0.8896108984693376,0.4502213993052188,0.0238037109375,0.07373046875,-1.5145721435546875
20230118-1457,2023-01-18 14:57:57Z,u01, 149,100,movements,wr-su, rt, d,125582.76090250001, -0.05750800983113381, -0.13281231085733752, 0.9362260230098564, 0.8581096529960632, -0.21719178557395935, 0.28820618987083435, -0.05697014555335045, 0.13242220878601074, -0.9895548224449158, 0.10279224812984467, -0.09860877692699432, -0.552635669708252, -0.04625072507494167, -0.05552887563879835, 0.8892253699173585,0.45172506893797154,0.0569000244140625,-0.0946197509765625,-1.5379180908203125
20230118-1457,2023-01-18 14:57:57Z,u01, 150,100,movements,wr-su, rt, d,125582.77092529167, -0.060342912972091295, -0.1256822716068137, 0.9397828286677627, 0.6117560863494873, -0.40029770135879517, 0.32040169835090637, -0.05983062461018562, 0.1253516525030136, -0.9903066754341125, 0.09872522950172424, -0.3619544506072998, -0.509800136089325, -0.042335616113106815, -0.05526636156333988, 0.888594780929638,0.4533791997793625,-0.011322021484375,-0.304412841796875,-1.4299468994140625
20230118-1457,2023-01-18 14:57:57Z,u01, 151,100,movements,wr-su, rt, d,125582.78094829168, -0.06368177797902776, -0.12062490917853597, 0.9432950632962284, 0.43617430329322815, -0.33746573328971863, 0.3069809377193451, -0.06317631900310516, 0.12033259868621826, -0.9907213449478149, -0.014368876814842224, -0.39894288778305054, -0.3528149724006653, -0.03922950456572001, -0.0556809203448891, 0.8878786028577983,0.45500795766336655,-0.141265869140625,-0.1965179443359375,-1.2514801025390625
20230118-1457,2023-01-18 14:57:57Z,u01, 152,100,movements,wr-su, rt, d,125582.79097029168, -0.06600793858792518, -0.11687664081681888, 0.9465447053672853, 0.33601948618888855, -0.20145277678966522, 0.29132527112960815, -0.06551001965999603, 0.11661072820425034, -0.991014838218689, -0.11759549379348755, -0.22938847541809082, -0.16708147525787354, -0.036942108945231776, -0.0559273633838938, 0.8871997993857538,0.4564909202130487,-0.20062255859375,-0.0618133544921875,-1.074920654296875
20230118-1457,2023-01-18 14:57:57Z,u01, 153,100,movements,wr-su, rt, d,125582.80099329168, -0.06687894567362505, -0.11418571819324472, 0.949661925888228, 0.23289580643177032, -0.04373956844210625, 0.28938406705856323, -0.0663939043879509, 0.11393775045871735, -0.9912669062614441, -0.13331317901611328, -0.15625040233135223, -0.020467102527618408, -0.0354603505295447, -0.05575948131246096, 0.8865524271218266,0.4578847066235276,-0.1864776611328125,-0.0349273681640625,-0.9718475341796875
20230118-1457,2023-01-18 14:57:57Z,u01, 154,100,movements,wr-su, rt, d,125582.81101629167, -0.06617867637503247, -0.11246534679040146, 0.9526129158295475, 0.12869323790073395, 0.11737128347158432, 0.2684873044490814, -0.06571260094642639, 0.1122284084558487, -0.9915072321891785, -0.10396517068147659, -0.13635259866714478, 0.03926730155944824, -0.03477527909517081, -0.05510945263874584, 0.8859515800825821,0.45917698208408586,-0.152374267578125,0.001708984375,-0.94036865234375
20230118-1457,2023-01-18 14:57:57Z,u01, 155,100,movements,wr-su, rt, d,125582.82103829167, -0.06394593806233989, -0.11161509582704324, 0.9552072261894365, 0.0907725840806961, 0.26420894265174866, 0.2360488772392273, -0.06350473314523697, 0.11138349026441574, -0.9917463660240173, -0.07313776761293411, -0.06804856657981873, 0.06768935918807983, -0.03484051756323202, -0.05397177209585304, 0.8854435659451565,0.4602856748500115,-0.1220703125,0.0800323486328125,-0.9058685302734375
20230118-1457,2023-01-18 14:57:57Z,u01, 156,100,movements,wr-su, rt, d,125582.83106129167, -0.06041881243485207, -0.11035547522228152, 0.9575299767486413, 0.18189875781536102, 0.38011422753334045, 0.21038292348384857, -0.060014758259058, 0.11013162136077881, -0.9921034574508667, -0.05161859095096588, -0.013238340616226196, 0.0964125394821167, -0.03503294576361731, -0.052162893693279894, 0.88504205989351,0.46125086518460945,-0.1004791259765625,0.10589599609375,-0.8973388671875
20230118-1457,2023-01-18 14:57:57Z,u01, 157,100,movements,wr-su, rt, d,125582.84108429168, -0.05610963834996274, -0.10806553649344862, 0.9597508528860422, 0.29479801654815674, 0.42035138607025146, 0.20720073580741882, -0.055753063410520554, 0.10785532742738724, -0.9926020503044128, -0.03320572152733803, 0.01867052912712097, 0.08354443311691284, -0.03495629621856521, -0.049769804102113756, 0.8847099353347024,0.46215733144077475,-0.0747222900390625,0.1508026123046875,-0.9337921142578125
20230118-1457,2023-01-18 14:57:57Z,u01, 158,100,movements,wr-su, rt, d,125582.85110629168, -0.05172699105182054, -0.10468102242943236, 0.9619796589861089, 0.40726783871650696, 0.40234071016311646, 0.19869619607925415, -0.051420897245407104, 0.10448994487524033, -0.9931957125663757, -0.005738571286201477, 0.06398231536149979, 0.03460806608200073, -0.03441691942642613, -0.047091553832272065, 0.8844012883718309,0.4630682507425318,-0.0392608642578125,0.1850128173828125,-0.97100830078125
20230118-1457,2023-01-18 14:57:57Z,u01, 159,100,movements,wr-su, rt, d,125582.86112929168, -0.04763082732280817, -0.09965926810631676, 0.964072943185703, 0.5971631407737732, 0.3706618845462799, 0.1558433622121811, -0.047376569360494614, 0.09949438273906708, -0.9939095973968506, 0.01826276257634163, 0.09259847551584244, 0.03362828493118286, -0.03309518516124246, -0.044157665547374714, 0.8841521338419192,0.46392878265179593,-0.035186767578125,0.180511474609375,-0.936248779296875
20230118-1457,2023-01-18 14:57:57Z,u01, 160,100,movements,wr-su, rt, d,125582.87115229167, -0.043754560434648176, -0.09280809860980549, 0.965613762328844, 0.7866612076759338, 0.3918451964855194, 0.10190368443727493, -0.04355235770344734, 0.09267492592334747, -0.9947434663772583, -0.012813650071620941, 0.07614828646183014, 0.0663529634475708, -0.030930109693099138, -0.040885182956537654, 0.8840590958150757,0.4645550328785412,-0.0902862548828125,0.1627197265625,-0.947265625
20230118-1457,2023-01-18 14:57:57Z,u01, 161,100,movements,wr-su, rt, d,125582.88117529168, -0.038973883489526955, -0.08360004513946598, 0.9674078762808461, 1.0612242221832275, 0.5303413271903992, 0.18512381613254547, -0.038827937096357346, 0.08350270241498947, -0.9957508444786072, -0.08351707458496094, 0.08013252168893814, 0.017311513423919678, -0.02793272526825232, -0.03666543347893984, 0.8839585742095307,0.46528776908739633,-0.1430206298828125,0.173248291015625,-1.00738525390625
20230118-1457,2023-01-18 14:57:57Z,u01, 162,100,movements,wr-su, rt, d,125582.89119729167, -0.03303815326170884, -0.07175669413886912, 0.9700488725770472, 1.2916430234909058, 0.601116955280304, 0.24668198823928833, -0.03294713795185089, 0.07169513404369354, -0.9968822598457336, -0.12176176905632019, 0.11815468221902847, -0.03566467761993408, -0.024032745146863856, -0.031325445623489705, 0.8836973741149969,0.46639053924072693,-0.1533966064453125,0.2034149169921875,-1.057281494140625
20230118-1457,2023-01-18 14:57:57Z,u01, 163,100,movements,wr-su, rt, d,125582.90122029168, -0.026876050727631884, -0.058111193192477845, 0.9729561845061286, 1.4250839948654175, 0.5839169025421143, 0.24475038051605225, -0.026827454566955566, 0.05807849392294884, -0.9979515075683594, -0.11573545634746552, 0.14875435829162598, -0.08378982543945312, -0.01939913150532626, -0.0254544438260945, 0.8833494720936121,0.4676210502955835,-0.128265380859375,0.20159912109375,-1.0950164794921875
20230118-1457,2023-01-18 14:57:57Z,u01, 164,100,movements,wr-su, rt, d,125582.91124329167, -0.021145745011812694, -0.043920637289215296, 0.975726362128746, 1.3700863122940063, 0.5286288857460022, 0.2377297580242157, -0.021123778074979782, 0.04390651732683182, -0.9988123178482056, -0.0987493097782135, 0.1466299444437027, -0.10333001613616943, -0.014441072414725135, -0.019629244092130207, 0.8829652621830497,0.46880530228945194,-0.11785888671875,0.1831512451171875,-1.1011199951171875
20230118-1457,2023-01-18 14:57:57Z,u01, 165,100,movements,wr-su, rt, d,125582.92126529168, -0.016267428863053265, -0.03190883586315765, 0.9781690048423659, 0.9930515289306641, 0.42445108294487, 0.1965179741382599, -0.01625843159854412, 0.03190341964364052, -0.9993587136268616, -0.09682449698448181, 0.1351802945137024, -0.09030193090438843, -0.010262075737376256, -0.014674257028175975, 0.882560860615644,0.46985712916254185,-0.1055908203125,0.13018798828125,-1.0694580078125
20230118-1457,2023-01-18 14:57:57Z,u01, 166,100,movements,wr-su, rt, d,125582.93128829167, -0.012431727305061577, -0.024852947710875022, 0.9800593122702446, 0.3956619203090668, 0.3400837182998657, 0.17039476335048676, -0.012427568435668945, 0.0248503889888525, -0.9996139407157898, -0.08678512275218964, 0.04997868090867996, -0.047352612018585205, -0.00803835454175196, -0.011332196545517934, 0.8821974288094887,0.4706747649166696,-0.0985260009765625,0.0189666748046875,-1.0230865478515625
20230118-1457,2023-01-18 14:57:57Z,u01, 167,100,movements,wr-su, rt, d,125582.94131129168, -0.009257176909097513, -0.024476006449259645, 0.9817715659199273, -0.3466795086860657, 0.2875046730041504, 0.16381317377090454, -0.00925427209585905, 0.024473562836647034, -0.9996576309204102, -0.09407828748226166, -0.04698031023144722, 0.014473915100097656, -0.008610722416117806, -0.009850581864210662, 0.8818134652050058,0.47141686046153336,-0.110321044921875,-0.0469818115234375,-0.926300048828125
20230118-1457,2023-01-18 14:57:57Z,u01, 168,100,movements,wr-su, rt, d,125582.95133329167, -0.006379533772355695, -0.031336920212800094, 0.983203018600442, -0.9973001480102539, 0.29342034459114075, 0.13844257593154907, -0.006376358214765787, 0.03133179247379303, -0.9994887113571167, -0.11523623764514923, -0.09691409766674042, 0.1395643949508667, -0.012306829338785213, -0.010207450766417402, 0.8814418184875917,0.47202204536923664,-0.1318206787109375,-0.0871124267578125,-0.8104705810546875
20230118-1457,2023-01-18 14:57:57Z,u01, 169,100,movements,wr-su, rt, d,125582.96135629168, -0.0028317011007942304, -0.043351413354699865, 0.9846093767055758, -1.3702317476272583, 0.4153537154197693, 0.15132258832454681, -0.002829036908224225, 0.04333783686161041, -0.9990564584732056, -0.13608701527118683, -0.1406126469373703, 0.21905767917633057, -0.018431056281760904, -0.011491805681598646, 0.8810234662049696,0.4725736772171223,-0.1438140869140625,-0.07232666015625,-0.7674713134765625
20230118-1457,2023-01-18 14:57:57Z,u01, 170,100,movements,wr-su, rt, d,125582.97137929167, 0.0021177408964321077, -0.05761558064528796, 0.9862418564524282, -1.4494805335998535, 0.5478070974349976, 0.1715487688779831, 0.002114225411787629, 0.05758370831608772, -0.9983384609222412, -0.14730164408683777, -0.08059399574995041, 0.2242906093597412, -0.025873137177695515, -0.012702731267760291, 0.880508215663995,0.47315375067430127,-0.13262939453125,0.0231475830078125,-0.793121337890625
20230118-1457,2023-01-18 14:57:57Z,u01, 171,100,movements,wr-su, rt, d,125582.98140229167, 0.008109978707305183, -0.07133869026329674, 0.9877792210083528, -1.2688030004501343, 0.6304847002029419, 0.1156998723745346, 0.008089262060821056, 0.07127819955348969, -0.9974236488342285, -0.11096405982971191, -0.01759781688451767, 0.1787744164466858, -0.03332084106358185, -0.013337358649024031, 0.8799969505228974,0.47362147786168196,-0.0716705322265625,0.0779876708984375,-0.8339691162109375
20230118-1457,2023-01-18 14:57:57Z,u01, 172,100,movements,wr-su, rt, d,125582.99142429167, 0.01516257180064384, -0.08184817121964331, 0.9891495113119241, -0.8090964555740356, 0.7701504230499268, 0.15616102516651154, 0.015111233107745647, 0.08175681531429291, -0.9965377449989319, -0.068135567009449, 0.03556797653436661, 0.16525417566299438, -0.03960455480363855, -0.01275176404952681, 0.8795557032631407,0.4739733463348601,-0.0438995361328125,0.1790313720703125,-0.8181304931640625
20230118-1457,2023-01-18 14:57:57Z,u01, 173,100,movements,wr-su, rt, d,125583.00144729168, 0.023566332119005204, -0.08706499046232503, 0.9909802769688031, -0.21857304871082306, 0.8665725588798523, 0.16843494772911072, 0.02347489632666111, 0.08695503324270248, -0.9959356188774109, -0.05994344502687454, 0.15999317169189453, 0.1933843493461609, -0.043879360450262556, -0.010334099095498525, 0.8790851615894674,0.47452835852968256,-0.0283203125,0.29986572265625,-0.8033294677734375
20230118-1457,2023-01-18 14:57:57Z,u01, 174,100,movements,wr-su, rt, d,125583.01147029168, 0.032906244462069995, -0.08543789394101918, 0.9927992124081556, 0.4518093168735504, 0.9656280875205994, 0.20251967012882233, 0.032780300825834274, 0.08533398807048798, -0.9958130121231079, -0.05624835938215256, 0.22931747138500214, 0.1570221185684204, -0.045374900226715045, -0.005883076858011951, 0.8787164862326518,0.47514608464213615,-0.0083160400390625,0.3051910400390625,-0.8982696533203125
20230118-1457,2023-01-18 14:57:57Z,u01, 175,100,movements,wr-su, rt, d,125583.02149229168, 0.04279387926359685, -0.08052853455652507, 0.9938925617974452, 0.5024073123931885, 0.9862667918205261, 0.04960434511303902, 0.04264217987656593, 0.08044152706861496, -0.9958467483520508, -0.021081559360027313, 0.24479952454566956, 0.08433252573013306, -0.045568144902014135, -0.0003940049496179397, 0.8785395537917257,0.47549091970935575,0.04095458984375,0.3584136962890625,-0.865478515625
20230118-1457,2023-01-18 14:57:57Z,u01, 176,100,movements,wr-su, rt, d,125583.03151529167, 0.05248896582851424, -0.07613169670868002, 0.9940342949479195, 0.28300121426582336, 0.9408380389213562, 0.026969337835907936, 0.05231289565563202, 0.07605817168951035, -0.9957301616668701, -0.0005703829228878021, 0.24172133207321167, 0.18095660209655762, -0.04594363312557033, 0.004910387821728101, 0.8785455822324527,0.47541840331721796,0.0732879638671875,0.229095458984375,-0.7917327880859375
20230118-1457,2023-01-18 14:57:57Z,u01, 177,100,movements,wr-su, rt, d,125583.04153829167, 0.0615111598882328, -0.07552884528328027, 0.994034170815353, -0.1776452660560608, 0.8603565096855164, -0.01509795431047678, 0.06129712238907814, 0.07545705884695053, -0.9952632188796997, 0.026883374899625778, 0.09953070431947708, 0.22896689176559448, -0.04782334345486881, 0.00901739140571571, 0.878520152772917,0.47521984116407756,0.0814666748046875,0.1239166259765625,-0.737640380859375
20230118-1457,2023-01-18 14:57:57Z,u01, 178,100,movements,wr-su, rt, d,125583.05156029167, 0.06956484550824403, -0.08025639567002106, 0.9942451952925199, -0.7847559452056885, 0.7456358075141907, 0.0017212401144206524, 0.06928501278162003, 0.08017026633024216, -0.9943702816963196, 0.0006001889705657959, -0.03256288170814514, 0.27908408641815186, -0.051811213367612324, 0.011421165795101905, 0.8783849041954588,0.4750000391370719,0.0675048828125,-0.0296630859375,-0.697113037109375
20230118-1457,2023-01-18 14:57:57Z,u01, 179,100,movements,wr-su, rt, d,125583.06158329168, 0.07691408320145213, -0.09072534545413599, 0.9954816704573913, -1.3031443357467651, 0.7126501202583313, 0.0986422747373581, 0.07652225345373154, 0.09060093760490417, -0.9929429888725281, -0.013183072209358215, -0.17713356018066406, 0.3101121783256531, -0.058152976754471314, 0.012113119182748877, 0.8779429911186247,0.4750659700668787,0.0517730712890625,-0.1234130859375,-0.6827850341796875
20230118-1457,2023-01-18 14:57:57Z,u01, 180,100,movements,wr-su, rt, d,125583.07160629168, 0.084706261827677, -0.1051084636817193, 0.9981908358577515, -1.5875438451766968, 0.7983970046043396, 0.18724431097507477, 0.08413808047771454, 0.10491503775119781, -0.9909155368804932, -0.04536554217338562, -0.2317003458738327, 0.30233216285705566, -0.06631835653153637, 0.012004290845859463, 0.8770818759430035,0.4755892173021655,0.032501220703125,-0.096466064453125,-0.6991424560546875
20230118-1457,2023-01-18 14:57:57Z,u01, 181,100,movements,wr-su, rt, d,125583.08162929167, 0.09388621522493226, -0.12067577842477929, 1.0015438941844936, -1.4944162368774414, 0.9722955822944641, 0.22353219985961914, 0.09306656569242477, 0.12038309872150421, -0.9883554577827454, -0.06071797013282776, -0.1623905748128891, 0.27995091676712036, -0.07532699797527274, 0.012170108455807519, 0.8760097701790692,0.47621900216672397,0.0359649658203125,0.02032470703125,-0.7240753173828125
20230118-1457,2023-01-18 14:57:57Z,u01, 182,100,movements,wr-su, rt, d,125583.09165129167, 0.10510695377191215, -0.1321491590044776, 1.005979484244704, -0.7690537571907043, 1.1421087980270386, 0.420392781496048, 0.10399879515171051, 0.13176485896110535, -0.9858104586601257, -0.0575205534696579, -0.045995235443115234, 0.22610586881637573, -0.08303528422324905, 0.014138913696449595, 0.8746983859581239,0.47729241071604933,0.0735626220703125,0.1639404296875,-0.8275604248046875
20230118-1457,2023-01-18 14:57:57Z,u01, 183,100,movements,wr-su, rt, d,125583.10167429167, 0.11732169148194438, -0.13329436999485422, 1.0108962643970105, 0.4476388394832611, 1.135741114616394, 0.5099680423736572, 0.11601441353559494, 0.13289999961853027, -0.9843161106109619, 0.0001507103443145752, 0.11055395007133484, 0.06923127174377441, -0.08649431507547921, 0.018991250668668233, 0.873404024205708,0.4788773794334731,0.158599853515625,0.32525634765625,-1.0176544189453125
20230118-1457,2023-01-18 14:57:57Z,u01, 184,100,movements,wr-su, rt, d,125583.11169729168, 0.1282049874172204, -0.12313911565659265, 1.0143354346677247, 1.3865528106689453, 0.9344043731689453, 0.39845749735832214, 0.12688595056533813, 0.1228281557559967, -0.9842830896377563, 0.07500304281711578, 0.2776387333869934, -0.13165318965911865, -0.08472946566391833, 0.026064767712652523, 0.8725899434343167,0.4803420099292677,0.2417755126953125,0.43536376953125,-1.16082763671875
20230118-1457,2023-01-18 14:57:57Z,u01, 185,100,movements,wr-su, rt, d,125583.12171929168, 0.1369793445466728, -0.1066699974781031, 1.0160226778463564, 1.7627291679382324, 0.7988774180412292, 0.3942872881889343, 0.13577523827552795, 0.1064678207039833, -0.9850023984909058, 0.12661485373973846, 0.2906726598739624, -0.18408024311065674, -0.07971099781323282, 0.033837346555563405, 0.8722005031142827,0.48142254237590554,0.2617340087890625,0.2725677490234375,-1.1661376953125
20230118-1457,2023-01-18 14:57:57Z,u01, 186,100,movements,wr-su, rt, d,125583.13174229168, 0.1448853579257451, -0.08817533649084248, 1.0177063658759193, 1.8287346363067627, 0.7568343877792358, 0.4572899341583252, 0.14381809532642365, 0.08806112408638, -0.9856782555580139, 0.10897423326969147, 0.026684939861297607, -0.17052596807479858, -0.07361571785824403, 0.04173254233944822, 0.8717209957108142,0.48264027911411145,0.230743408203125,-0.005889892578125,-1.1410980224609375
20230118-1457,2023-01-18 14:57:57Z,u01, 187,100,movements,wr-su, rt, d,125583.14176529167, 0.15238560392880232, -0.07051745104696851, 1.019622251263618, 1.5334378480911255, 0.7109230756759644, 0.4240592420101166, 0.1514192521572113, 0.0704590231180191, -0.9859552383422852, 0.051781997084617615, -0.1541382521390915, -0.13103389739990234, -0.06780344499863333, 0.04924503254918859, 0.8710729121863159,0.483952028812747,0.179931640625,-0.1168212890625,-1.054962158203125
20230118-1457,2023-01-18 14:57:57Z,u01, 188,100,movements,wr-su, rt, d,125583.15178729167, 0.1596300264336962, -0.05727424188732795, 1.021863765259815, 0.9843595027923584, 0.7093685865402222, 0.4292460083961487, 0.15869231522083282, 0.05724293366074562, -0.9856672883033752, 0.0025472640991210938, -0.1874919831752777, 0.010706961154937744, -0.06386827964443358, 0.05556257453105079, 0.8702721107242894,0.48524237451291163,0.1600799560546875,-0.1671142578125,-0.90924072265625
20230118-1457,2023-01-18 14:57:57Z,u01, 189,100,movements,wr-su, rt, d,125583.16181029167, 0.16711050546678935, -0.04959688261555532, 1.0249987099686886, 0.412601500749588, 0.7366145849227905, 0.42347022891044617, 0.16612927615642548, 0.04957655072212219, -0.9848569631576538, 0.0022971928119659424, -0.2636879086494446, 0.10799539089202881, -0.062446430035419734, 0.06059672077115834, 0.8692289654319334,0.48669250720646495,0.1726531982421875,-0.2306060791015625,-0.8772430419921875
20230118-1457,2023-01-18 14:57:57Z,u01, 190,100,movements,wr-su, rt, d,125583.17183329168, 0.17443350747085762, -0.04741674140054734, 1.028459045559778, -0.0728200376033783, 0.6699114441871643, 0.3452041745185852, 0.17335520684719086, 0.04739897698163986, -0.9837180972099304, 0.008621081709861755, -0.24539704620838165, 0.08669966459274292, -0.0633942141577533, 0.06420374598235441, 0.8681344864029916,0.48805899841459544,0.1993255615234375,-0.1323394775390625,-0.939605712890625
20230118-1457,2023-01-18 14:57:57Z,u01, 191,100,movements,wr-su, rt, d,125583.18185529168, 0.18012110299945772, -0.049255370547177504, 1.031803036524608, -0.4081360697746277, 0.41593053936958313, 0.23246851563453674, 0.17893144488334656, 0.04923545569181442, -0.9826288223266602, 0.056572675704956055, -0.12053981423377991, -0.014990806579589844, -0.06568849270226115, 0.06611059043050663, 0.8671529262624857,0.48924446365081886,0.28436279296875,-0.02276611328125,-1.047821044921875
20230118-1457,2023-01-18 14:57:57Z,u01, 192,100,movements,wr-su, rt, d,125583.19187829168, 0.1830263024473015, -0.05435517565081465, 1.034961330940141, -0.6963428258895874, 0.13860493898391724, 0.20991633832454681, 0.18173736333847046, 0.05432841554284096, -0.9818452000617981, 0.13549281656742096, -0.040458206087350845, -0.0907103419303894, -0.06870844182798688, 0.06600424624432107, 0.8663405672963164,0.49028214304751405,0.3260650634765625,0.02679443359375,-1.079071044921875
20230118-1457,2023-01-18 14:57:57Z,u01, 193,100,movements,wr-su, rt, d,125583.20190129167, 0.18400119365959605, -0.06094111127075052, 1.0382307441200436, -0.682887852191925, 0.046943195164203644, 0.2102271020412445, 0.18262504041194916, 0.0609033964574337, -0.9812945127487183, 0.13208743929862976, -0.036016348749399185, -0.08521854877471924, -0.071897456882225, 0.06468006820988001, 0.8655737389111984,0.49135464245842964,0.2684326171875,0.0313720703125,-1.0297393798828125
20230118-1457,2023-01-18 14:57:57Z,u01, 194,100,movements,wr-su, rt, d,125583.21192429168, 0.18488181694272557, -0.06553214380339692, 1.0414897901644642, -0.31421610713005066, 0.10269220918416977, 0.23608559370040894, 0.18343578279018402, 0.06548524647951126, -0.9808480739593506, 0.016988366842269897, -0.0019782036542892456, -0.008486032485961914, -0.07419813617901104, 0.06380114083294781, 0.864786122147225,0.4925130368738172,0.141021728515625,0.115325927734375,-0.961822509765625
20230118-1457,2023-01-18 14:57:57Z,u01, 195,100,movements,wr-su, rt, d,125583.22194629167, 0.18697957706689228, -0.06539036569560458, 1.0441168781757728, 0.2578733563423157, 0.2821730077266693, 0.3044922351837158, 0.18549469113349915, 0.06534377485513687, -0.9804702401161194, -0.09336215257644653, 0.10009198635816574, 0.040483057498931885, -0.07473858200570863, 0.0646453299837772, 0.8640698066716277,0.49357725462114066,0.057220458984375,0.1978302001953125,-0.9171295166015625
20230118-1457,2023-01-18 14:57:58Z,u01, 196,100,movements,wr-su, rt, d,125583.23196929168, 0.19010611892727441, -0.05965760640531847, 1.0460991112489169, 0.7532564997673035, 0.3025962710380554, 0.2772805988788605, 0.1886269450187683, 0.05962222442030907, -0.9802372455596924, -0.1352212131023407, 0.15168145298957825, 0.09112286567687988, -0.07310897475213557, 0.06735318613384406, 0.8634196738759397,0.49459596939660133,0.075225830078125,0.2178802490234375,-0.8719940185546875
20230118-1457,2023-01-18 14:57:58Z,u01, 197,100,movements,wr-su, rt, d,125583.24199229167, 0.19322997898494484, -0.05057634567616715, 1.0473342114649045, 0.9498865604400635, 0.30772843956947327, 0.3177385926246643, 0.19178420305252075, 0.0505547858774662, -0.9801341891288757, -0.09417377412319183, 0.1612982153892517, 0.13668936491012573, -0.07001754098275266, 0.07092565245249527, 0.8628967648781913,0.495455666851275,0.115509033203125,0.177001953125,-0.8118896484375
20230118-1457,2023-01-18 14:57:58Z,u01, 198,100,movements,wr-su, rt, d,125583.25201429168, 0.19652569345686347, -0.040725445808250986, 1.048638276799739, 0.8999519944190979, 0.35323867201805115, 0.3356528878211975, 0.19510118663311005, 0.040714189410209656, -0.9799376726150513, -0.06637808680534363, 0.07339100539684296, 0.19203484058380127, -0.06664444957356655, 0.07476409180097938, 0.8623105920989136,0.49637625915355454,0.1265411376953125,0.04541015625,-0.7726898193359375
20230118-1457,2023-01-18 14:57:58Z,u01, 199,100,movements,wr-su, rt, d,125583.26203729167, 0.20042609553469612, -0.032246502704001936, 1.0504776046945636, 0.6520420908927917, 0.4056640565395355, 0.3510928750038147, 0.19898341596126556, 0.032240916043519974, -0.9794723987579346, -0.07250334322452545, -0.04366977885365486, 0.2036239504814148, -0.0640375169771414, 0.07850484424474749, 0.8615603251284709,0.497443528286453,0.150482177734375,-0.0395355224609375,-0.77996826171875
20230118-1457,2023-01-18 14:57:58Z,u01, 200,100,movements,wr-su, rt, d,125583.27206029168, 0.20455508381228746, -0.026701866528196484, 1.0532668118127457, 0.3170047104358673, 0.3855111300945282, 0.389435738325119, 0.203059121966362, 0.02669869363307953, -0.9788024425506592, -0.019679054617881775, -0.05916942283511162, 0.2088438868522644, -0.062794445398266, 0.08158215560243379, 0.8605949499734336,0.4987761782944509,0.2226715087890625,-0.0287628173828125,-0.780029296875
20230118-1457,2023-01-18 14:57:58Z,u01, 201,100,movements,wr-su, rt, d,125583.28208229167, 0.2081048903234057, -0.024982903336760856, 1.056383846464145, -0.10412441194057465, 0.306847482919693, 0.307190865278244, 0.20654158294200897, 0.02498030476272106, -0.978118896484375, 0.058869749307632446, -0.0725114643573761, 0.1486663818359375, -0.06307138616642288, 0.08344192546630788, 0.8596350906209898,0.5000870274079247,0.2975616455078125,-0.0608978271484375,-0.877838134765625
20230118-1457,2023-01-18 14:57:58Z,u01, 202,100,movements,wr-su, rt, d,125583.29210529168, 0.21055722362952412, -0.026977024618686087, 1.0597558285031992, -0.42855361104011536, 0.14748577773571014, 0.2627869248390198, 0.20892880856990814, 0.026973752304911613, -0.9775587916374207, 0.11789916455745697, -0.09362417459487915, 0.051350295543670654, -0.0646817131523979, 0.08388614376306107, 0.858729671403895,0.5013608695306727,0.3596954345703125,-0.0576171875,-0.973663330078125
20230118-1457,2023-01-18 14:57:58Z,u01, 203,100,movements,wr-su, rt, d,125583.30212829167, 0.2112755893370582, -0.03133267236954556, 1.0633757066029554, -0.5510351061820984, -0.0334099642932415, 0.25560757517814636, 0.20960436761379242, 0.03132754564285278, -0.97728431224823, 0.1691034734249115, -0.05699285492300987, -0.03879845142364502, -0.0668788886558705, 0.08297629926562804, 0.8578799071026048,0.5026770561523694,0.3886260986328125,-0.0004119873046875,-1.042877197265625
20230118-1457,2023-01-18 14:57:58Z,u01, 204,100,movements,wr-su, rt, d,125583.31215129167, 0.21032718263331676, -0.036192477142248616, 1.066651208542079, -0.5421994924545288, -0.16639837622642517, 0.18474112451076508, 0.20864315330982208, 0.03618457540869713, -0.9773222208023071, 0.18405699729919434, -0.03951101750135422, -0.08577287197113037, -0.06885405122330769, 0.08122816074199134, 0.8571891507365439,0.5038727602072675,0.376708984375,-0.01544189453125,-1.060546875
20230118-1457,2023-01-18 14:57:58Z,u01, 205,100,movements,wr-su, rt, d,125583.32217329167, 0.2089168574902444, -0.040240299457347126, 1.06954399903087, -0.3200198709964752, -0.11799436062574387, 0.23097170889377594, 0.2072325348854065, 0.0402294397354126, -0.9774641990661621, 0.13534249365329742, -0.05626645311713219, -0.05705118179321289, -0.07034472831007628, 0.07949538508863782, 0.8565910332938615,0.5049594178147878,0.3059234619140625,-0.015167236328125,-0.999114990234375
20230118-1457,2023-01-18 14:57:58Z,u01, 206,100,movements,wr-su, rt, d,125583.33219629167, 0.2080313713019483, -0.04098409897610705, 1.0721952486830613, 0.06116024777293205, -0.09490369260311127, 0.23627406358718872, 0.20636068284511566, 0.04097262769937515, -0.9776178002357483, 0.07064731419086456, -0.05217260494828224, 0.01573425531387329, -0.07054350718516669, 0.07883353512876719, 0.8559691790815152,0.5060886161792707,0.2476806640625,0.0131378173828125,-0.9401092529296875
20230118-1457,2023-01-18 14:57:58Z,u01, 207,100,movements,wr-su, rt, d,125583.34221929168, 0.20705076628772148, -0.03865601389022582, 1.073807348595663, 0.2907769978046417, -0.10930579900741577, 0.17949828505516052, 0.20542098581790924, 0.0386463887989521, -0.9779103398323059, 0.020058095455169678, -0.0006825551390647888, 0.06996667385101318, -0.06936507163448498, 0.07895129035877287, 0.8555577155937397,0.5069281115299263,0.217926025390625,0.0325775146484375,-0.8687744140625
20230118-1457,2023-01-18 14:57:58Z,u01, 208,100,movements,wr-su, rt, d,125583.35224129168, 0.20620679704944114, -0.035224231356979725, 1.0746994086845598, 0.3215506374835968, -0.058895353227853775, 0.14091360569000244, 0.20462153851985931, 0.03521694615483284, -0.9782074093818665, 0.010908827185630798, -0.03671233355998993, 0.15411072969436646, -0.06772187534110415, 0.07943568628876799, 0.8553014616910697,0.5075067261978056,0.211273193359375,-0.046630859375,-0.7843017578125
20230118-1457,2023-01-18 14:57:58Z,u01, 209,100,movements,wr-su, rt, d,125583.36226429167, 0.20581397468574633, -0.03207285062399458, 1.07530674098295, 0.2704279124736786, -0.04531775787472725, 0.09527907520532608, 0.20425891876220703, 0.032067351043224335, -0.9783915281295776, 0.0017957240343093872, -0.11563976854085922, 0.21423137187957764, -0.06630162996993136, 0.08005205812576853, 0.8551026198522066,0.5079322424089542,0.2159423828125,-0.1055755615234375,-0.7694854736328125
20230118-1457,2023-01-18 14:57:58Z,u01, 210,100,movements,wr-su, rt, d,125583.37228729167, 0.20488445538423203, -0.029667779078803348, 1.0753201573260023, 0.18847844004631042, -0.1367102563381195, 0.007440564688295126, 0.2033645063638687, 0.02966342680156231, -0.9786536693572998, 0.034642040729522705, -0.14581336081027985, 0.1886756420135498, -0.06503972084920327, 0.08026836791478476, 0.8550893102459443,0.5080837886560979,0.2612762451171875,-0.1165313720703125,-0.8094329833984375
20230118-1457,2023-01-18 14:57:58Z,u01, 211,100,movements,wr-su, rt, d,125583.38230929167, 0.2032612755619625, -0.02828390411382248, 1.0746357993317968, 0.09425760060548782, -0.18127933144569397, -0.08510886132717133, 0.20178379118442535, 0.02828013338148594, -0.9790217280387878, 0.07613974809646606, -0.13876906037330627, 0.15182751417160034, -0.0640093321416534, 0.07994963599591226, 0.8553006002253701,0.507909174410565,0.280487060546875,-0.1005401611328125,-0.8535308837890625
20230118-1457,2023-01-18 14:57:58Z,u01, 212,100,movements,wr-su, rt, d,125583.39233229167, 0.20106282270742656, -0.02834374081391563, 1.073331752295021, -0.06869430094957352, -0.25635969638824463, -0.16706018149852753, 0.19963063299655914, 0.028339946642518044, -0.9794613122940063, 0.06930547952651978, -0.11302626132965088, 0.08891260623931885, -0.06342501835875222, 0.07903551988111975, 0.8557201396449328,0.5074185971206403,0.2607269287109375,-0.0628662109375,-0.9363861083984375
20230118-1457,2023-01-18 14:57:58Z,u01, 213,100,movements,wr-su, rt, d,125583.40235529168, 0.19768682599373133, -0.030514484321295908, 1.0717293238053458, -0.2868610918521881, -0.42021626234054565, -0.23415397107601166, 0.19631031155586243, 0.030509749427437782, -0.9800670742988586, 0.0658814013004303, -0.07242567092180252, -0.014409244060516357, -0.06343398056865793, 0.07708829314511767, 0.8562998223402225,0.5067388339028907,0.2684326171875,-0.016265869140625,-1.0480804443359375
20230118-1457,2023-01-18 14:57:58Z,u01, 214,100,movements,wr-su, rt, d,125583.41237729168, 0.1926344992668225, -0.03434537584875462, 1.0696946465679724, -0.3499535024166107, -0.5546709895133972, -0.3032427728176117, 0.19133242964744568, 0.03433862328529358, -0.9809244275093079, 0.08009088039398193, -0.023871123790740967, -0.10846155881881714, -0.0637159920104262, 0.07401385169373823, 0.8570743222287276,0.5058516460296678,0.260528564453125,0.045806884765625,-1.1198577880859375
20230118-1457,2023-01-18 14:57:58Z,u01, 215,100,movements,wr-su, rt, d,125583.42240029167, 0.1866116803059223, -0.03771879578107156, 1.0672374345867777, -0.1818138062953949, -0.6273984313011169, -0.29719024896621704, 0.18539850413799286, 0.03770985081791878, -0.9819396138191223, 0.051600947976112366, 0.053430862724781036, -0.15679329633712769, -0.06354878246861483, 0.07065235813887065, 0.8579683337389654,0.5048368892133202,0.2102508544921875,0.1473846435546875,-1.1337127685546875
20230118-1457,2023-01-18 14:57:58Z,u01, 216,100,movements,wr-su, rt, d,125583.43242329167, 0.17995986283110124, -0.03811839108332845, 1.0644010798397974, 0.2149553745985031, -0.6716039776802063, -0.28106480836868286, 0.17886006832122803, 0.03810916095972061, -0.9831361770629883, 0.007922738790512085, 0.1578289270401001, -0.11267375946044922, -0.061944444914234946, 0.06778487380914164, 0.8589198068106754,0.5038104875293223,0.16162109375,0.2267608642578125,-1.02130126953125
20230118-1457,2023-01-18 14:57:58Z,u01, 217,100,movements,wr-su, rt, d,125583.44244629168, 0.173321008959529, -0.03406292531232556, 1.0608931873543057, 0.690403163433075, -0.6175466179847717, -0.2633315622806549, 0.17235450446605682, 0.03405633941292763, -0.984446108341217, -0.0580967515707016, 0.20170718431472778, 0.04575592279434204, -0.05841713876330842, 0.06606358220206104, 0.8599653179726845,0.5026754969972353,0.0542755126953125,0.207427978515625,-0.871246337890625
20230118-1457,2023-01-18 14:57:58Z,u01, 218,100,movements,wr-su, rt, d,125583.45246829167, 0.1673487332518592, -0.02622672677970563, 1.0570301194397103, 0.928743302822113, -0.5584015250205994, -0.24953266978263855, 0.1665114313364029, 0.026223720982670784, -0.9856907725334167, -0.16005700826644897, 0.11112061142921448, 0.16925400495529175, -0.0534242866907116, 0.06557796596021741, 0.8610140887901295,0.5014977655949069,-0.011871337890625,0.043548583984375,-0.759185791015625
20230118-1457,2023-01-18 14:57:58Z,u01, 219,100,movements,wr-su, rt, d,125583.46249129168, 0.16197586719413162, -0.018105481469407287, 1.0528412469040003, 0.7763676047325134, -0.4841180145740509, -0.2962181568145752, 0.16124209761619568, 0.018104491755366325, -0.9867488145828247, -0.16644537448883057, -0.06435391306877136, 0.2930842638015747, -0.048446926140467896, 0.0654101677132205, 0.8621097308389518,0.500141208163825,0.00372314453125,-0.1046142578125,-0.648193359375
20230118-1457,2023-01-18 14:57:58Z,u01, 220,100,movements,wr-su, rt, d,125583.47251429167, 0.15751100745838903, -0.012502780351154947, 1.0489452723212187, 0.4340963065624237, -0.4015962481498718, -0.2977774143218994, 0.1568482518196106, 0.012502454221248627, -0.9875435829162598, -0.15054641664028168, -0.1491449475288391, 0.31507349014282227, -0.04479012861991903, 0.06497734875353983, 0.863134652094856,0.4987689617617701,0.009857177734375,-0.1486663818359375,-0.753631591796875
20230118-1457,2023-01-18 14:57:58Z,u01, 221,100,movements,wr-su, rt, d,125583.48253629167, 0.15353113735836615, -0.009265901273090354, 1.0456171569243031, 0.3426503837108612, -0.40259066224098206, -0.2484658807516098, 0.1529221087694168, 0.009265768341720104, -0.9881948232650757, -0.1287827491760254, -0.14833439886569977, 0.11441552639007568, -0.04229443785927788, 0.06413873983346412, 0.8640367543612566,0.49753182798168083,0.072784423828125,-0.1163787841796875,-0.997650146484375
20230118-1457,2023-01-18 14:57:58Z,u01, 222,100,movements,wr-su, rt, d,125583.49255929167, 0.14843058920962665, -0.00679964693105731, 1.042332054484542, 0.2427925020456314, -0.641878068447113, -0.3550189733505249, 0.14788274466991425, 0.00679959449917078, -0.9889815449714661, -0.0031836777925491333, -0.0651187151670456, -0.11276406049728394, -0.03985738848410853, 0.0626148923193386, 0.864972548381392,0.4962996576506919,0.20233154296875,0.0498504638671875,-1.1795196533203125
20230118-1457,2023-01-18 14:57:58Z,u01, 223,100,movements,wr-su, rt, d,125583.50258229168, 0.1405659404026783, -0.0052985798972287135, 1.038383064611151, 0.18226531147956848, -0.8816943764686584, -0.35235047340393066, 0.14010152220726013, 0.00529855489730835, -0.9901229739189148, 0.09805761277675629, 0.14313891530036926, -0.2521255612373352, -0.037138548097924974, 0.059659409494192864, 0.8661664328918726,0.4947901165439985,0.2599945068359375,0.1797027587890625,-1.2951507568359375
20230118-1457,2023-01-18 14:57:58Z,u01, 224,100,movements,wr-su, rt, d,125583.51260429167, 0.13146879962565208, -0.0035543328331203473, 1.0346606669198928, 0.2938171327114105, -0.9337168335914612, -0.3754197955131531, 0.13108958303928375, 0.003554325317963958, -0.9913641810417175, 0.13258224725723267, 0.1593484729528427, -0.32838374376296997, -0.03402752626694944, 0.05621432122689658, 0.8673218117378085,0.49339122933109014,0.2438201904296875,0.1464080810546875,-1.299468994140625
20230118-1457,2023-01-18 14:57:58Z,u01, 225,100,movements,wr-su, rt, d,125583.52262729168, 0.12189132398318145, 0.00022224525924510147, 1.0303928957958524, 0.5432714819908142, -0.9742685556411743, -0.35143107175827026, 0.12158971279859543, -0.00022224526037462056, -0.9925804138183594, 0.08400717377662659, 0.14695072174072266, -0.2616767883300781, -0.02991317381232688, 0.05305649026655744, 0.8685770382916664,0.4917969208560604,0.1747283935546875,0.1504669189453125,-1.214752197265625
20230118-1457,2023-01-18 14:57:58Z,u01, 226,100,movements,wr-su, rt, d,125583.53265029167, 0.11171238430030238, 0.006044862271940731, 1.0258951385089021, 0.7116740345954895, -1.0484423637390137, -0.40298590064048767, 0.11147813498973846, -0.006044825538992882, -0.9937484860420227, 0.07188668847084045, 0.12968675792217255, -0.1379196047782898, -0.024767576597215103, 0.05012301024069267, 0.8698561721784586,0.49012702916759004,0.1905975341796875,0.058441162109375,-0.9924468994140625
20230118-1457,2023-01-18 14:57:58Z,u01, 227,100,movements,wr-su, rt, d,125583.54267329167, 0.10148548549840351, 0.013766870962333106, 1.0210229362726746, 0.916286826133728, -0.9767847061157227, -0.38901063799858093, 0.10130176693201065, -0.013766435906291008, -0.9947605133056641, 0.05845770984888077, -0.01952827349305153, 0.14708900451660156, -0.018784888631308536, 0.04761178143636899, 0.8711804905923205,0.48828768516743587,0.1025848388671875,-0.1248321533203125,-0.7518768310546875
20230118-1457,2023-01-18 14:57:58Z,u01, 228,100,movements,wr-su, rt, d,125583.55269529167, 0.09246545926930222, 0.023389647582670155, 1.0162589029628555, 1.1086714267730713, -0.8402225971221924, -0.3766530454158783, 0.09230849891901016, -0.023387515917420387, -0.9954557418823242, -0.05635884404182434, -0.15123410522937775, 0.2899656891822815, -0.012278594628200228, 0.04605819289180234, 0.8724000169987487,0.4864629341844794,-0.0145111083984375,-0.170745849609375,-0.6841583251953125
20230118-1457,2023-01-18 14:57:58Z,u01, 229,100,movements,wr-su, rt, d,125583.56271829168, 0.08425733027907853, 0.03526878690514946, 1.011186876591517, 1.3068156242370605, -0.8215886950492859, -0.42537733912467957, 0.08410533517599106, -0.035261474549770355, -0.9958328008651733, -0.11959731578826904, -0.10676737129688263, 0.31884610652923584, -0.004981211342113139, 0.04537398443387508, 0.8736154273643699,0.48447146890923215,-0.03167724609375,-0.116729736328125,-0.7037811279296875
20230118-1457,2023-01-18 14:57:58Z,u01, 230,100,movements,wr-su, rt, d,125583.57274129167, 0.07633217103326725, 0.048071113860892786, 1.0057405672054323, 1.2940672636032104, -0.8202568292617798, -0.4499836266040802, 0.07616997510194778, -0.048052601516246796, -0.9959362745285034, -0.09577755630016327, -0.04705546423792839, 0.21255004405975342, 0.002658579788605328, 0.044997664360528745, 0.8748699111674241,0.4822559086690127,-0.0029449462890625,-0.0943145751953125,-0.8879547119140625
20230118-1457,2023-01-18 14:57:58Z,u01, 231,100,movements,wr-su, rt, d,125583.58276329168, 0.0678084045725445, 0.06020498358622886, 1.0001933819504878, 1.243959665298462, -0.9401862025260925, -0.47063329815864563, 0.06763369590044022, -0.06016862019896507, -0.9958942532539368, -0.0452643558382988, -0.051830921322107315, 0.005400538444519043, 0.010149919232661092, 0.04415697240964954, 0.8761453290530631,0.4799130123727148,0.055694580078125,-0.12335205078125,-1.0671844482421875
20230118-1457,2023-01-18 14:57:58Z,u01, 232,100,movements,wr-su, rt, d,125583.59278629167, 0.05845284209667703, 0.07337969192444503, 0.9948532105972044, 1.4213813543319702, -0.9819054007530212, -0.4229198396205902, 0.05826234817504883, -0.07331385463476181, -0.9956056475639343, 0.03560967743396759, -0.05035866051912308, -0.11640912294387817, 0.018288055966943124, 0.04315935768144467, 0.8773354890024787,0.47758281969473165,0.11370849609375,-0.1024932861328125,-1.119384765625
20230118-1457,2023-01-18 14:57:58Z,u01, 233,100,movements,wr-su, rt, d,125583.60280929167, 0.04878626558937787, 0.08766826677969976, 0.9900035991611926, 1.4586687088012695, -1.0418736934661865, -0.38907739520072937, 0.0485796295106411, -0.08755601197481155, -0.9949743747711182, 0.04634525626897812, 0.03779706358909607, -0.10603880882263184, 0.026973535597794036, 0.04225223486130497, 0.8783533873327334,0.47537625294494856,0.0522003173828125,-0.01507568359375,-1.0860748291015625
20230118-1457,2023-01-18 14:57:58Z,u01, 234,100,movements,wr-su, rt, d,125583.61283129167, 0.038235528551292246, 0.10125753120379245, 0.9855638476099361, 1.2818217277526855, -1.1352044343948364, -0.3740222752094269, 0.038030412048101425, -0.10108458250761032, -0.994150698184967, -0.029714412987232208, 0.06365473568439484, -0.08852142095565796, 0.03554569729823083, 0.040757307827913994, 0.8792728996701862,0.473238439345918,-0.0293121337890625,-0.092132568359375,-1.07037353515625
20230118-1457,2023-01-18 14:57:58Z,u01, 235,100,movements,wr-su, rt, d,125583.62285429168, 0.027141405904566575, 0.11325531828145342, 0.9813863680187488, 1.129286527633667, -1.159899115562439, -0.3772028982639313, 0.0269642136991024, -0.113013356924057, -0.9932275414466858, -0.08580214530229568, -0.03354734927415848, -0.03880065679550171, 0.043530097006064146, 0.03861825068405209, 0.8801495948173848,0.47111614048931527,-0.082366943359375,-0.17608642578125,-0.9766845703125
20230118-1457,2023-01-18 14:57:58Z,u01, 236,100,movements,wr-su, rt, d,125583.63287729167, 0.015952211860524153, 0.12426036659824008, 0.9773031705813142, 1.0973504781723022, -1.184905767440796, -0.39186546206474304, 0.015828542411327362, -0.1239408403635025, -0.992163360118866, -0.12141940742731094, -0.04231896251440048, 0.05934780836105347, 0.05108484440277457, 0.03617541241136146, 0.8810024793244325,0.4689523270511524,-0.1211090087890625,-0.145172119140625,-0.9130706787109375
20230118-1457,2023-01-18 14:57:58Z,u01, 237,100,movements,wr-su, rt, d,125583.64289929168, 0.00404667714162691, 0.13556608788330923, 0.9729861024122297, 1.177021861076355, -1.3190968036651611, -0.44256702065467834, 0.004009537864476442, -0.1351512223482132, -0.9908168911933899, -0.13401445746421814, 0.001758858561515808, 0.08441430330276489, 0.05892892173869739, 0.03345067195334476, 0.881882028802033,0.4665752690543314,-0.1340179443359375,-0.1403350830078125,-0.906982421875
20230118-1457,2023-01-18 14:57:58Z,u01, 238,100,movements,wr-su, rt, d,125583.65292229167, -0.009125245952034648, 0.1477451502900404, 0.9681241082593531, 1.2396492958068848, -1.4292001724243164, -0.5186034440994263, -0.009025705978274345, -0.14720822870731354, -0.9890643358230591, -0.11884298920631409, -0.02744390070438385, 0.08760565519332886, 0.06744290564961582, 0.030319679958196646, 0.8828453415959125,0.4638062501473055,-0.1228790283203125,-0.23101806640625,-0.8726348876953125
20230118-1457,2023-01-18 14:57:58Z,u01, 239,100,movements,wr-su, rt, d,125583.66294529167, -0.02269738080333581, 0.16042557456639017, 0.962980886525396, 1.251931071281433, -1.4381818771362305, -0.5284490585327148, -0.022404009476304054, -0.15973833203315735, -0.9869050979614258, -0.10287069529294968, -0.13315415382385254, 0.15107446908950806, 0.07625084115990338, 0.027078535817982332, 0.8838200957826495,0.4607760125970488,-0.1297149658203125,-0.34228515625,-0.8177337646484375
20230118-1457,2023-01-18 14:57:58Z,u01, 240,100,movements,wr-su, rt, d,125583.67296829168, -0.03665764756107234, 0.17302037041176982, 0.9578873777570146, 1.2416558265686035, -1.5152380466461182, -0.5519943237304688, -0.036102235317230225, -0.1721584051847458, -0.9844074845314026, -0.08656321465969086, -0.1861332505941391, 0.14023029804229736, 0.08508227438456402, 0.02360636274719579, 0.8847445508007779,0.4576360806526728,-0.1003570556640625,-0.345123291015625,-0.9038543701171875
20230118-1457,2023-01-18 14:57:58Z,u01, 241,100,movements,wr-su, rt, d,125583.68299029168, -0.0511594773952168, 0.18597601166120456, 0.9527252543351528, 1.2880699634552002, -1.5527987480163574, -0.5712810158729553, -0.050255365669727325, -0.1849057972431183, -0.9814704656600952, -0.02608439326286316, -0.1365358829498291, 0.008463263511657715, 0.09416713297002341, 0.019933039123074342, 0.8856290180240445,0.4543088459406419,-0.0609130859375,-0.2902374267578125,-1.0346527099609375
20230118-1457,2023-01-18 14:57:58Z,u01, 242,100,movements,wr-su, rt, d,125583.69301329168, -0.06574804848892458, 0.1995428874809775, 0.9476155041504774, 1.3539248704910278, -1.5508983135223389, -0.5854415893554688, -0.06439700722694397, -0.19822131097316742, -0.978039562702179, 0.008458241820335388, -0.05402177572250366, -0.10585325956344604, 0.1035076573401643, 0.016321638922669093, 0.8864275524923576,0.45085027004654354,-0.057708740234375,-0.223114013671875,-1.1254119873046875
20230118-1457,2023-01-18 14:57:58Z,u01, 243,100,movements,wr-su, rt, d,125583.70303629167, -0.08031558451003834, 0.21393595070536436, 0.9423415971434689, 1.4160901308059692, -1.579047441482544, -0.6640778183937073, -0.07840026915073395, -0.21230775117874146, -0.9740527868270874, 0.02157648652791977, 0.011975079774856567, -0.1921306848526001, 0.11317386375218866, 0.012856308282947385, 0.8871761404354215,0.44715221279107775,-0.0549163818359375,-0.16876220703125,-1.187957763671875
20230118-1457,2023-01-18 14:57:58Z,u01, 244,100,movements,wr-su, rt, d,125583.71305829167, -0.09498106946159816, 0.22838148375212936, 0.9363456296799074, 1.314037799835205, -1.613415241241455, -0.7419191002845764, -0.09237576276063919, -0.22640132904052734, -0.9696438312530518, 0.039793938398361206, 0.09429070353507996, -0.21057766675949097, 0.12285004774112088, 0.009270977951285057, 0.8880237584785202,0.44298500832823207,-0.046966552734375,-0.112823486328125,-1.149627685546875
20230118-1457,2023-01-18 14:57:58Z,u01, 245,100,movements,wr-su, rt, d,125583.72308129167, -0.10949392381687267, 0.24116330189557944, 0.9299158609230617, 1.1040096282958984, -1.5664211511611938, -0.7450653910636902, -0.10611292719841003, -0.23883242905139923, -0.9652456045150757, 0.07506125420331955, 0.10586731135845184, -0.15612274408340454, 0.13171598499744622, 0.005299839614973448, 0.8889719317013126,0.4385790647553292,-0.0079498291015625,-0.177978515625,-1.1149749755859375
20230118-1457,2023-01-18 14:57:58Z,u01, 246,100,movements,wr-su, rt, d,125583.73310429168, -0.12356963034411222, 0.251872477781986, 0.9237278254031959, 0.8785871267318726, -1.5572574138641357, -0.6773321628570557, -0.11936637759208679, -0.24921779334545135, -0.961063027381897, 0.11381214112043381, 0.03933310508728027, -0.16912496089935303, 0.13952571420347545, 0.0010260851206073673, 0.8898952111770853,0.4343020022838943,-0.038299560546875,-0.1810150146484375,-1.127777099609375
20230118-1457,2023-01-18 14:57:58Z,u01, 247,100,movements,wr-su, rt, d,125583.74312629168, -0.13808322232689393, 0.2602447238112695, 0.9183369429522442, 0.6400978565216064, -1.6083898544311523, -0.5687689185142517, -0.1330099254846573, -0.25731703639030457, -0.957129180431366, 0.055434197187423706, 0.13401073217391968, -0.13933682441711426, 0.1463551171481425, -0.003947422626332353, 0.8906926848582712,0.4303848311064536,-0.0837249755859375,-0.0939483642578125,-1.02862548828125
20230118-1457,2023-01-18 14:57:58Z,u01, 248,100,movements,wr-su, rt, d,125583.75314929168, -0.15311082536490303, 0.2662740577537204, 0.9139397784801644, 0.43367812037467957, -1.605937123298645, -0.44223731756210327, -0.14713843166828156, -0.26313865184783936, -0.9534717202186584, 0.09223726391792297, 0.16027909517288208, -0.005421042442321777, 0.15222175295535018, -0.009626638047153566, 0.8913263838812574,0.4269346342481306,-0.021820068359375,-0.1329498291015625,-0.910308837890625
