SessionID,LoggingTime,UID,RecNo,Hertz,Activity,MoveType,Wrist,Side,TimeStamp,DMRoll,DMPitch,DMYaw,DMRotX,DMRotY,DMRotZ,DMGrvX,DMGrvY,DMGrvZ,DMUAccelX,DMUAccelY,DMUAccelZ,DMQuatX,DMQuatY,DMQuatW,DMQuatZ,AccelroX,AceelroY,AceelroZ
20230215-1542,2023-02-15 15:42:22Z,u02, 1,100,movements,el-ex, lt, nd,281712.6441111667, 0.04491635054182276, 0.7139537071118242, -0.0167542139989765, 0.06949649751186371, -0.23119130730628967, 0.11208441853523254, 0.033935412764549255, -0.6548269987106323, -0.755016565322876, 0.18270887434482574, -0.07500088214874268, 0.05059456825256348, 0.3495191318067162, 0.018113297146150828, 0.9367541712331992,1.3877787807814457e-17,0.2187042236328125,-0.811309814453125,-0.7523193359375
20230215-1542,2023-02-15 15:42:22Z,u02, 3,100,movements,el-ex, lt, nd,281712.65413416666, 0.041851666945984294, 0.7140024056932474, -0.014735886281241586, 0.009786294773221016, -0.17778001725673676, 0.2310379594564438, 0.03162003308534622, -0.6548638343811035, -0.7550851106643677, 0.08234786987304688, -0.057614803314208984, 0.004657864570617676, 0.34952455721935, 0.017030217281097756, 0.9367722875461425,0.0004103244879999912,0.0536041259765625,-0.61492919921875,-0.69268798828125
20230215-1542,2023-02-15 15:42:22Z,u02, 2,100,movements,el-ex, lt, nd,281712.6641581667, 0.037585188269252875, 0.7149387515873887, -0.011915009438031258, 0.04883544519543648, -0.2984675467014313, 0.2067042738199234, 0.02837514877319336, -0.6555711627006531, -0.7546001076698303, 0.06180429458618164, -0.017310917377471924, 0.08690601587295532, 0.3499415787321618, 0.015519098633500025, 0.9366424525395319,0.000995228758909894,0.1233367919921875,-0.760101318359375,-0.7124481201171875
20230215-1542,2023-02-15 15:42:22Z,u02, 4,100,movements,el-ex, lt, nd,281712.6741811667, 0.032812018182294754, 0.7147840868345835, -0.0085802355970062, -0.189815491437912, -0.18950484693050385, 0.38816139101982117, 0.024776332080364227, -0.6554543375968933, -0.7548282742500305, 0.08659757673740387, -0.08967810869216919, 0.021002590656280518, 0.3498478787652985, 0.01386790560685432, 0.9367023291395891,0.0017205581692479044,0.10247802734375,-0.707733154296875,-0.7205810546875
20230215-1542,2023-02-15 15:42:22Z,u02, 5,100,movements,el-ex, lt, nd,281712.6842041667, 0.02681441830732636, 0.7128638795314828, -0.002635748161357076, -0.19948208332061768, -0.3084469437599182, 0.3616802394390106, 0.02028246410191059, -0.6540029644966125, -0.7562201023101807, 0.11150769889354706, -0.08542269468307495, 0.07053589820861816, 0.34891752073285554, 0.012104340237418538, 0.9370690196977082,0.003443136219602974,0.2208404541015625,-0.8764190673828125,-0.6416015625
20230215-1542,2023-02-15 15:42:22Z,u02, 6,100,movements,el-ex, lt, nd,281712.6942271667, 0.02105306975796392, 0.7102988755788796, 0.0003271789270810854, -0.36051037907600403, -0.4344908893108368, 0.22106827795505524, 0.015960562974214554, -0.6520603895187378, -0.7579990029335022, 0.25381481647491455, -0.31112009286880493, 0.1002231240272522, 0.3477096084284801, 0.009926321409205605, 0.9375419457571061,0.00381370185992036,0.234375,-0.8597564697265625,-0.702392578125
20230215-1542,2023-02-15 15:42:22Z,u02, 7,100,movements,el-ex, lt, nd,281712.70425016666, 0.014216247202282756, 0.7073013908958492, 0.005171664864775674, -0.26780515909194946, -0.3473038077354431, 0.4643819034099579, 0.010805663652718067, -0.6497848629951477, -0.7600412964820862, 0.1380743384361267, -0.07549583911895752, 0.03190714120864868, 0.34629774564913707, 0.007563671305026439, 0.9380813938569076,0.004887434835364635,0.1019287109375,-0.7212982177734375,-0.7226104736328125
20230215-1542,2023-02-15 15:42:22Z,u02, 8,100,movements,el-ex, lt, nd,281712.71427316667, 0.0066801138432406775, 0.7047971556420703, 0.010792062929368343, -0.2805025577545166, -0.46930453181266785, 0.4215260446071625, 0.005088492296636105, -0.6478793025016785, -0.7617260217666626, 0.11901123821735382, -0.13005948066711426, 0.0439068078994751, 0.3451261050310056, 0.004997171290675596, 0.9385224437111767,0.006217180726659444,0.1814117431640625,-0.7811737060546875,-0.733306884765625
20230215-1542,2023-02-15 15:42:22Z,u02, 9,100,movements,el-ex, lt, nd,281712.7242971667, -0.00229806411897668, 0.7026492204395741, 0.01693703920077589, -0.19663141667842865, -0.5469980239868164, 0.5389878153800964, -0.0017537266248837113, -0.6462416648864746, -0.7631308436393738, 0.22143450379371643, -0.10619974136352539, 0.016197800636291504, 0.3441383690447217, 0.001835527105233034, 0.9388867682169253,0.007555726637231627,0.22796630859375,-0.7534027099609375,-0.7435760498046875
20230215-1542,2023-02-15 15:42:22Z,u02, 10,100,movements,el-ex, lt, nd,281712.7343201667, -0.013017235716290943, 0.700798659251134, 0.024487488966302904, -0.2055809646844864, -0.6385505795478821, 0.6372270584106445, -0.009949149563908577, -0.6448283195495605, -0.7642626762390137, 0.22319072484970093, -0.12792247533798218, 0.03603696823120117, 0.34331475557551444, -0.0019098731031311836, 0.9391727418857447,0.009265182403612626,0.1981201171875,-0.7819976806640625,-0.716522216796875
20230215-1542,2023-02-15 15:42:22Z,u02, 11,100,movements,el-ex, lt, nd,281712.7443431667, -0.025212145102764313, 0.6990880868164842, 0.03353716523900502, -0.14672060310840607, -0.6434646248817444, 0.7758872509002686, -0.01929607056081295, -0.643519937992096, -0.765186071395874, 0.2096952497959137, -0.14258235692977905, 0.06502127647399902, 0.34259268474777843, -0.006099789609752014, 0.9393946428634368,0.011436105346776373,0.1836700439453125,-0.78369140625,-0.6672515869140625
20230215-1542,2023-02-15 15:42:22Z,u02, 12,100,movements,el-ex, lt, nd,281712.75436616666, -0.038053754357062444, 0.6980472220450973, 0.04431229702022112, -0.05207638815045357, -0.5611261129379272, 0.8914490342140198, -0.029145898297429085, -0.6427229046821594, -0.7655441164970398, 0.19572609663009644, -0.11866015195846558, 0.1411544680595398, 0.3422307125125876, -0.01029924577939121, 0.9394505425034287,0.014309987107975694,0.1403045654296875,-0.7106475830078125,-0.5866851806640625
20230215-1542,2023-02-15 15:42:22Z,u02, 13,100,movements,el-ex, lt, nd,281712.76438916667, -0.05052432739040939, 0.6977126041564649, 0.05599823377936764, 0.017413189634680748, -0.45090341567993164, 0.9099056720733643, -0.03870101645588875, -0.6424664855003357, -0.7653359174728394, 0.15041062235832214, -0.006962776184082031, 0.20683372020721436, 0.3422447728296849, -0.014162205180284763, 0.9393379323764116,0.017669845693292607,0.0880126953125,-0.600555419921875,-0.5466766357421875
20230215-1542,2023-02-15 15:42:22Z,u02, 14,100,movements,el-ex, lt, nd,281712.7744131667, -0.06196818784293823, 0.6977166885689445, 0.06781471564857254, 0.043388862162828445, -0.3400179147720337, 0.9176274538040161, -0.0474565289914608, -0.6424696445465088, -0.764840304851532, 0.1148546040058136, 0.06249833106994629, 0.21135824918746948, 0.3424516247297902, -0.017513725630428974, 0.9391316592825599,0.021260141903555796,0.051422119140625,-0.5834503173828125,-0.57818603515625
20230215-1542,2023-02-15 15:42:22Z,u02, 15,100,movements,el-ex, lt, nd,281712.7844361667, -0.07255753634892914, 0.6977122289254075, 0.0797043691255389, 0.03939518332481384, -0.2843370735645294, 0.9089261293411255, -0.05555308237671852, -0.6424662470817566, -0.7642977237701416, 0.09724009037017822, 0.041483521461486816, 0.1529543399810791, 0.3426849302784631, -0.020449121965826357, 0.9388942938721154,0.025028757293075132,0.0366668701171875,-0.61688232421875,-0.6429595947265625
20230215-1542,2023-02-15 15:42:22Z,u02, 16,100,movements,el-ex, lt, nd,281712.7944591667, -0.0829173076654128, 0.6974935219686669, 0.09113523814779907, 0.034117065370082855, -0.3332290053367615, 0.852378249168396, -0.06347955018281937, -0.6422985792160034, -0.7638212442398071, 0.10075676441192627, 0.010310053825378418, 0.09165632724761963, 0.3428465407447763, -0.023358704802161602, 0.9386646614272299,0.028624418850959593,0.04931640625,-0.65374755859375,-0.6951446533203125
20230215-1542,2023-02-15 15:42:22Z,u02, 17,100,movements,el-ex, lt, nd,281712.80448216666, -0.09289220002883464, 0.6973889128640876, 0.101730509028816, 0.04237406700849533, -0.3145914077758789, 0.781430721282959, -0.07110152393579483, -0.6422184109687805, -0.7632169127464294, 0.13517320156097412, -0.04616653919219971, 0.06407445669174194, 0.3430798044335274, -0.026225863880051305, 0.9383983640409358,0.031888951178837166,0.068511962890625,-0.7252960205078125,-0.6896820068359375
20230215-1542,2023-02-15 15:42:22Z,u02, 18,100,movements,el-ex, lt, nd,281712.81450516667, -0.10217173176301061, 0.6967452770893298, 0.11132690965604677, -0.05489309877157211, -0.32924410700798035, 0.713358998298645, -0.07822280377149582, -0.6417249441146851, -0.7629353404045105, 0.13307815790176392, -0.10661178827285767, 0.0830342173576355, 0.34306552387195133, -0.028954721409944283, 0.9382192169989522,0.03481995680270071,0.0337982177734375,-0.750640869140625,-0.674652099609375
20230215-1542,2023-02-15 15:42:22Z,u02, 19,100,movements,el-ex, lt, nd,281712.8245281667, -0.11112157258048266, 0.695361849459472, 0.1201594650285025, -0.1035597026348114, -0.32577720284461975, 0.6823859214782715, -0.08514609932899475, -0.6406633257865906, -0.7630863189697266, 0.10750022530555725, -0.10558301210403442, 0.10637855529785156, 0.34271366591906877, -0.03168886964842035, 0.9381571189933718,0.03747709409416737,0.0258026123046875,-0.7450103759765625,-0.6268310546875
20230215-1542,2023-02-15 15:42:22Z,u02, 20,100,movements,el-ex, lt, nd,281712.8345521667, -0.11908845530387739, 0.6935004926765767, 0.12846971649963565, -0.16033323109149933, -0.23245523869991302, 0.6566286087036133, -0.09136427193880081, -0.6392329931259155, -0.7635664939880371, 0.12764966487884521, -0.0969577431678772, 0.1738142967224121, 0.3421339024699304, -0.034075655848783845, 0.9381774172055986,0.040081166386361756,0.042022705078125,-0.712066650390625,-0.563262939453125
20230215-1542,2023-02-15 15:42:22Z,u02, 21,100,movements,el-ex, lt, nd,281712.8445751667, -0.127069523236822, 0.6907213522471822, 0.13696822996224228, -0.26862800121307373, -0.32246822118759155, 0.7318217158317566, -0.09768012911081314, -0.6370933651924133, -0.7645722031593323, 0.14241889119148254, -0.053397297859191895, 0.19772344827651978, 0.3411493198201394, -0.036483509077413434, 0.9383244882472587,0.042816129016328704,0.0627593994140625,-0.69635009765625,-0.5903167724609375
20230215-1542,2023-02-15 15:42:22Z,u02, 22,100,movements,el-ex, lt, nd,281712.8545981667, -0.13659221813152578, 0.6867589898178647, 0.14653843874607317, -0.3518957495689392, -0.361171156167984, 0.8583629131317139, -0.10529929399490356, -0.6340342164039612, -0.7661022543907166, 0.20440512895584106, -0.08743178844451904, 0.14752614498138428, 0.33968918046637714, -0.039498631597966474, 0.9385884784603584,0.04585570014542179,0.1374359130859375,-0.74566650390625,-0.6272125244140625
20230215-1542,2023-02-15 15:42:22Z,u02, 23,100,movements,el-ex, lt, nd,281712.86462116666, -0.1463092613316967, 0.6815923138152807, 0.15779175826250852, -0.44154226779937744, -0.146567240357399, 1.045589566230774, -0.11321453005075455, -0.6300303936004639, -0.7682735919952393, 0.26862528920173645, -0.12318921089172363, 0.15136075019836426, 0.33773583658113954, -0.04239950220198311, 0.9389696125045095,0.04972946439090792,0.156982421875,-0.7324371337890625,-0.6280517578125
20230215-1542,2023-02-15 15:42:22Z,u02, 24,100,movements,el-ex, lt, nd,281712.8746441667, -0.1552421037666042, 0.6754131988598273, 0.1718794039457259, -0.4726373255252838, 0.11513920873403549, 1.3229622840881348, -0.12067243456840515, -0.6252198219299316, -0.7710631489753723, 0.27626630663871765, -0.08034652471542358, 0.09424424171447754, 0.3353872609681957, -0.04454002278155912, 0.9394097961064883,0.055144856061096655,0.1542510986328125,-0.6824493408203125,-0.7409820556640625
20230215-1542,2023-02-15 15:42:22Z,u02, 25,100,movements,el-ex, lt, nd,281712.8846681667, -0.16355432784862314, 0.6684548483006022, 0.1890872436748259, -0.48222815990448, 0.3400021493434906, 1.5549044609069824, -0.12778271734714508, -0.6197741031646729, -0.7743071913719177, 0.2781580984592438, -0.03386658430099487, -0.025817930698394775, 0.3327677588665591, -0.04595688931498416, 0.9398319763955993,0.06220436411519997,0.1365814208984375,-0.620269775390625,-0.832183837890625
20230215-1542,2023-02-15 15:42:22Z,u02, 26,100,movements,el-ex, lt, nd,281712.8946911667, -0.1713953311676047, 0.6614273620840326, 0.20880660153842884, -0.4050329923629761, 0.5120130181312561, 1.755875587463379, -0.13458962738513947, -0.6142438054084778, -0.777553915977478, 0.25005286931991577, 0.015214323997497559, -0.06682169437408447, 0.330201435100914, -0.04679789931780529, 0.9401052292184152,0.0705625656914207,0.09259033203125,-0.598876953125,-0.8487396240234375
20230215-1542,2023-02-15 15:42:22Z,u02, 27,100,movements,el-ex, lt, nd,281712.9047141667, -0.17914196568379054, 0.6548855626996619, 0.2312751391380667, -0.29044675827026367, 0.6639820337295532, 1.971512794494629, -0.14132192730903625, -0.6090685129165649, -0.7804253101348877, 0.22117118537425995, 0.0008074045181274414, -0.06208866834640503, 0.32796656589260703, -0.04717278387426533, 0.9400931316725817,0.08023426146529107,0.0672454833984375,-0.6097869873046875,-0.8169097900390625
20230215-1542,2023-02-15 15:42:22Z,u02, 28,100,movements,el-ex, lt, nd,281712.91473716666, -0.1869246113013631, 0.6488512402749643, 0.25588182412998567, -0.21732006967067719, 0.746712327003479, 2.085545778274536, -0.14807169139385223, -0.6042714715003967, -0.7828989028930664, 0.19586223363876343, -0.001075148582458496, 0.0006723999977111816, 0.3260657497656254, -0.047240512434914075, 0.9397798616255006,0.09090240911374359,0.024566650390625,-0.611968994140625,-0.7425994873046875
20230215-1542,2023-02-15 15:42:22Z,u02, 29,100,movements,el-ex, lt, nd,281712.9247601667, -0.19422367179473085, 0.6429112773414969, 0.2813484282910652, -0.2137775421142578, 0.8447901606559753, 2.130419969558716, -0.15447217226028442, -0.5995280146598816, -0.7853053212165833, 0.15529614686965942, -0.03532910346984863, 0.08176833391189575, 0.32425137224323797, -0.04699338075714637, 0.9392732702536212,0.10207036535896419,-0.0234832763671875,-0.6659698486328125,-0.660675048828125
20230215-1542,2023-02-15 15:42:22Z,u02, 30,100,movements,el-ex, lt, nd,281712.9347831667, -0.2004352579554412, 0.6365661461148211, 0.30680513823612304, -0.253518283367157, 0.9363632202148438, 2.121553421020508, -0.16010132431983948, -0.5944376587867737, -0.7880428433418274, 0.11014404892921448, -0.09026998281478882, 0.17174029350280762, 0.3222296656920658, -0.046331720679524596, 0.9386953603466464,0.11345723701862924,-0.0723114013671875,-0.69256591796875,-0.5750885009765625
20230215-1542,2023-02-15 15:42:22Z,u02, 31,100,movements,el-ex, lt, nd,281712.9448071667, -0.2053697178680246, 0.6297818995070137, 0.3318078743126323, -0.29390960931777954, 1.0245509147644043, 2.104067087173462, -0.1648065447807312, -0.5889685153961182, -0.7911731600761414, 0.0777704119682312, -0.11395812034606934, 0.2513476610183716, 0.3199468920830689, -0.04524836830635987, 0.9380779615001591,0.12488565131325247,-0.0923004150390625,-0.7200927734375,-0.5100250244140625
20230215-1542,2023-02-15 15:42:22Z,u02, 32,100,movements,el-ex, lt, nd,281712.9548301667, -0.2088606198527321, 0.622315212802111, 0.3563730475025658, -0.38508984446525574, 1.1465955972671509, 2.105275869369507, -0.16847459971904755, -0.5829179286956787, -0.7948729991912842, 0.07911913096904755, -0.1558973789215088, 0.3130462169647217, 0.31726070323118166, -0.04369385491344471, 0.9374594068789077,0.13640542744820056,-0.0851593017578125,-0.755828857421875,-0.464263916015625
20230215-1542,2023-02-15 15:42:22Z,u02, 33,100,movements,el-ex, lt, nd,281712.96485316666, -0.21048385511685877, 0.613567151165046, 0.3805617628509805, -0.5308674573898315, 1.3344522714614868, 2.1191179752349854, -0.17082355916500092, -0.5757876038551331, -0.7995548248291016, 0.09671163558959961, -0.18983733654022217, 0.33764082193374634, 0.3138431054052225, -0.041534081115768076, 0.9369245109580961,0.14815518037212816,-0.058929443359375,-0.762725830078125,-0.470489501953125
20230215-1542,2023-02-15 15:42:22Z,u02, 34,100,movements,el-ex, lt, nd,281712.97487616667, -0.209454594638909, 0.6035947612589063, 0.40469325334861417, -0.5948871970176697, 1.6176365613937378, 2.1804311275482178, -0.1711859554052353, -0.5676056742668152, -0.8053069114685059, 0.12737798690795898, -0.17893052101135254, 0.3165678381919861, 0.3096361273659237, -0.03836696190153929, 0.9364435997773953,0.16039628357663094,-0.028350830078125,-0.72064208984375,-0.5181732177734375
20230215-1542,2023-02-15 15:42:22Z,u02, 35,100,movements,el-ex, lt, nd,281712.9848991667, -0.20677502114965302, 0.5933132927365441, 0.42957785667541365, -0.5861596465110779, 1.6716362237930298, 2.2567150592803955, -0.1702166348695755, -0.5591111183166504, -0.8114314675331116, 0.1533404141664505, -0.12092733383178711, 0.2553401589393616, 0.3051183137385601, -0.03445382799240177, 0.9357854129893466,0.17326696924608115,-0.0065765380859375,-0.6319427490234375,-0.5938568115234375
20230215-1542,2023-02-15 15:42:22Z,u02, 36,100,movements,el-ex, lt, nd,281712.9949221667, -0.20410656530191276, 0.5831647116859406, 0.45468875650211527, -0.5723415613174438, 1.6467995643615723, 2.238206624984741, -0.16919219493865967, -0.5506683588027954, -0.8173972964286804, 0.18066680431365967, -0.04407346248626709, 0.18618696928024292, 0.3006067027319529, -0.03060963484877917, 0.9348904940511021,0.18622153713411144,0.033843994140625,-0.5753326416015625,-0.648529052734375
20230215-1542,2023-02-15 15:42:22Z,u02, 37,100,movements,el-ex, lt, nd,281713.0049461667, -0.200780073080689, 0.5731379853515258, 0.4792622005923457, -0.5873124003410339, 1.693678617477417, 2.197075605392456, -0.16756495833396912, -0.5422712564468384, -0.8233248591423035, 0.2085043042898178, -0.022273361682891846, 0.17328518629074097, 0.29602034440899977, -0.026636790852213356, 0.9338423697574298,0.1989995610767465,0.0270843505859375,-0.556671142578125,-0.645416259765625
20230215-1542,2023-02-15 15:42:22Z,u02, 38,100,movements,el-ex, lt, nd,281713.01496916666, -0.19642807836413378, 0.5629845819661197, 0.5034697100760821, -0.6167365908622742, 1.7744871377944946, 2.207413673400879, -0.16504639387130737, -0.5337125062942505, -0.829403817653656, 0.17037171125411987, -0.023263752460479736, 0.18398749828338623, 0.29120054431953757, -0.022368390109772728, 0.9326655456657061,0.21174743518316413,-0.0089111328125,-0.569732666015625,-0.652587890625
20230215-1542,2023-02-15 15:42:22Z,u02, 39,100,movements,el-ex, lt, nd,281713.02499216667, -0.19113599407670415, 0.5525445273081694, 0.527806351833093, -0.6596778631210327, 1.8346405029296875, 2.239100933074951, -0.16170458495616913, -0.5248547792434692, -0.8356907963752747, 0.14801748096942902, -0.06625539064407349, 0.17867785692214966, 0.2860731301706132, -0.017797905271814463, 0.9313225185913894,0.22468626627433114,-0.00970458984375,-0.6103668212890625,-0.6524658203125
20230215-1542,2023-02-15 15:42:22Z,u02, 40,100,movements,el-ex, lt, nd,281713.0350151667, -0.18540301864325956, 0.5415685382744138, 0.5521044465639701, -0.7444356679916382, 1.820986032485962, 2.2406938076019287, -0.15796345472335815, -0.5154806971549988, -0.8422156572341919, 0.16350239515304565, -0.10263758897781372, 0.1990119218826294, 0.28056594136695073, -0.013225550888123775, 0.9298482807177969,0.23767663593752592,0.0304718017578125,-0.616363525390625,-0.6375274658203125
20230215-1542,2023-02-15 15:42:22Z,u02, 41,100,movements,el-ex, lt, nd,281713.0450381667, -0.17953022327003373, 0.5295632038838946, 0.5760243097932325, -0.9011762738227844, 1.780491590499878, 2.2353508472442627, -0.15410859882831573, -0.505156397819519, -0.8491569757461548, 0.21428927779197693, -0.11180216073989868, 0.21375048160552979, 0.2744848363902311, -0.0089213918008961, 0.9283335007550266,0.2505503640285982,0.0873260498046875,-0.6165008544921875,-0.6349945068359375
20230215-1542,2023-02-15 15:42:22Z,u02, 42,100,movements,el-ex, lt, nd,281713.0550621667, -0.1736933616385687, 0.5157292428920578, 0.5993716417695533, -1.1371248960494995, 1.7075339555740356, 2.2269883155822754, -0.15034301578998566, -0.493169367313385, -0.8568436503410339, 0.26074036955833435, -0.11838763952255249, 0.22270357608795166, 0.2674918288503277, -0.0051294010840671166, 0.9268881238561307,0.26324964043695886,0.13275146484375,-0.6092071533203125,-0.635009765625
20230215-1542,2023-02-15 15:42:22Z,u02, 43,100,movements,el-ex, lt, nd,281713.06508516666, -0.16795913005871096, 0.49929218688860455, 0.6219914320377712, -1.4435392618179321, 1.6293963193893433, 2.2234976291656494, -0.1467626541852951, -0.47880426049232483, -0.8655675649642944, 0.3021581768989563, -0.13063177466392517, 0.23167169094085693, 0.25925281559191626, -0.0020455985186049255, 0.9256068905416444,0.2757459202419353,0.1727142333984375,-0.60247802734375,-0.63214111328125
20230215-1542,2023-02-15 15:42:22Z,u02, 44,100,movements,el-ex, lt, nd,281713.07510816667, -0.1629004310597913, 0.4798648053007512, 0.644073953245255, -1.7570897340774536, 1.4487253427505493, 2.2650082111358643, -0.14386378228664398, -0.4616592526435852, -0.8753136396408081, 0.3248330354690552, -0.1244918704032898, 0.2438439130783081, 0.2496861602651382, -4.22817545239762e-06, 0.9244839399002587,0.28807355246128646,0.1805419921875,-0.5605621337890625,-0.6463775634765625
20230215-1542,2023-02-15 15:42:22Z,u02, 45,100,movements,el-ex, lt, nd,281713.0851311667, -0.15840454080649521, 0.4575756419030733, 0.6661190049676136, -2.0099196434020996, 1.4575172662734985, 2.3187031745910645, -0.14151529967784882, -0.4417744576931, -0.8858943581581116, 0.3314109444618225, -0.09931743144989014, 0.21438556909561157, 0.23885485343064564, 0.0010924685600785626, 0.9234017202589007,0.3004604595545149,0.1995849609375,-0.5228729248046875,-0.669647216796875
20230215-1542,2023-02-15 15:42:22Z,u02, 46,100,movements,el-ex, lt, nd,281713.0951541667, -0.15273110358883077, 0.4337281134702437, 0.6885577127998216, -2.052006483078003, 1.6052683591842651, 2.4215967655181885, -0.138050839304924, -0.4202566146850586, -0.8968424201011658, 0.3250930905342102, -0.0743112564086914, 0.23403114080429077, 0.22709820830644262, 0.002279081645155001, 0.9221319137386288,0.31319943460205324,0.1571044921875,-0.4691619873046875,-0.673797607421875
20230215-1542,2023-02-15 15:42:22Z,u02, 47,100,movements,el-ex, lt, nd,281713.1051781667, -0.14570117939786287, 0.4102879973681128, 0.7120560440553035, -1.941453218460083, 1.7176766395568848, 2.5003299713134766, -0.13313663005828857, -0.3988734483718872, -0.9072897434234619, 0.2606238126754761, -0.04923141002655029, 0.22659510374069214, 0.2152648383443767, 0.004023816220273358, 0.9203694136375231,0.32644305825200287,0.112579345703125,-0.4333038330078125,-0.6733551025390625
20230215-1542,2023-02-15 15:42:22Z,u02, 48,100,movements,el-ex, lt, nd,281713.11520116666, -0.13832716406707302, 0.38790312138209343, 0.7359834355176627, -1.8383188247680664, 1.654436469078064, 2.418745994567871, -0.12764208018779755, -0.3782481551170349, -0.9168619513511658, 0.24270862340927124, -0.0557270348072052, 0.24010413885116577, 0.20379951530779103, 0.00589744369653911, 0.9181600297336233,0.33972521190227384,0.1269378662109375,-0.4449920654296875,-0.680511474609375
20230215-1542,2023-02-15 15:42:22Z,u02, 49,100,movements,el-ex, lt, nd,281713.12522416667, -0.1311347051550204, 0.3673616201854802, 0.7585715846960152, -1.7091869115829468, 1.473637342453003, 2.284017324447632, -0.1220346987247467, -0.3591543436050415, -0.9252651929855347, 0.2538096308708191, -0.08335050940513611, 0.24788177013397217, 0.1931553550928931, 0.0076420623583691085, 0.9157715261491823,0.35212967862347244,0.0889739990234375,-0.386993408203125,-0.72918701171875
20230215-1542,2023-02-15 15:42:22Z,u02, 50,100,movements,el-ex, lt, nd,281713.1352471667, -0.12623247306408353, 0.3501176202590906, 0.780350893389106, -1.1629058122634888, 0.9734309911727905, 2.1872544288635254, -0.11825959384441376, -0.34300827980041504, -0.9318583607673645, 0.15648287534713745, 0.04375293850898743, 0.101856529712677, 0.18437909635723232, 0.008669995763310488, 0.913072376417783,0.36363195392263425,0.007965087890625,-0.2281646728515625,-0.9643707275390625
20230215-1542,2023-02-15 15:42:22Z,u02, 51,100,movements,el-ex, lt, nd,281713.1452701667, -0.12628055845983427, 0.33668225012988395, 0.8005385671022434, -1.0362272262573242, 0.48877963423728943, 1.959811806678772, -0.11887411773204803, -0.3303574323654175, -0.9363401532173157, 0.15433557331562042, 0.09938517212867737, -0.14140337705612183, 0.1782358157132083, 0.007868036395335107, 0.9102479075571692,0.3736562328377259,0.1162109375,-0.1845245361328125,-1.2224273681640625
20230215-1542,2023-02-15 15:42:22Z,u02, 52,100,movements,el-ex, lt, nd,281713.1552931667, -0.12797621034396828, 0.32534269437151825, 0.8208106836408434, -0.7943221926689148, 0.5088406801223755, 2.1528818607330322, -0.12093200534582138, -0.31963351368904114, -0.9397924542427063, 0.29204410314559937, 0.250373899936676, -0.4286004900932312, 0.17337788251685207, 0.006624313053228109, 0.9071337026874674,0.3834118773497587,0.1604461669921875,0.038330078125,-1.468505859375
20230215-1542,2023-02-15 15:42:22Z,u02, 53,100,movements,el-ex, lt, nd,281713.16531716665, -0.12931400688456599, 0.3143225476508371, 0.8413173196516363, -0.9723931550979614, 0.5203657746315002, 1.917205572128296, -0.12263594567775726, -0.30917227268218994, -0.9430657029151917, 0.24266161024570465, 0.43534722924232483, -0.5857123732566833, 0.1686314785832066, 0.005529010523227507, 0.9038160040882479,0.39325505451243525,0.0564422607421875,0.1609649658203125,-1.5872955322265625
20230215-1542,2023-02-15 15:42:22Z,u02, 54,100,movements,el-ex, lt, nd,281713.17534016666, -0.1292189116046905, 0.2998055679590856, 0.8586311529030346, -1.452183485031128, 0.5280617475509644, 1.798654317855835, -0.12311168760061264, -0.29533445835113525, -0.9474286437034607, 0.06038282811641693, 0.44183409214019775, -0.7073412537574768, 0.1620795188055193, 0.003986694071829477, 0.9011919414692371,0.40195467046597816,-0.1895751953125,0.1227874755859375,-1.6732940673828125
20230215-1542,2023-02-15 15:42:22Z,u02, 55,100,movements,el-ex, lt, nd,281713.1853631667, -0.1299400942823912, 0.2820546517994602, 0.875673286337146, -1.647810935974121, 0.26975327730178833, 1.8651710748672485, -0.12445467710494995, -0.2783297002315521, -0.952388346195221, -0.12983301281929016, 0.3961885869503021, -0.6979565024375916, 0.1542862353853108, 0.0012528493558707342, 0.8986569803450655,0.41062132683168917,-0.239013671875,0.1600494384765625,-1.6227264404296875
20230215-1542,2023-02-15 15:42:22Z,u02, 56,100,movements,el-ex, lt, nd,281713.1953861667, -0.1337587743915301, 0.2627455472335637, 0.8922290438816777, -1.7567243576049805, -0.15879061818122864, 1.783835530281067, -0.1287834197282791, -0.25973284244537354, -0.9570546746253967, -0.070328488945961, 0.5159584283828735, -0.6245645880699158, 0.14649660521072805, -0.0033761431969216837, 0.8961345083241637,0.418891831359972,-0.164581298828125,0.320587158203125,-1.53460693359375
20230215-1542,2023-02-15 15:42:22Z,u02, 57,100,movements,el-ex, lt, nd,281713.2054091667, -0.14022460702971268, 0.24162853785346167, 0.9069301353397768, -2.1199135780334473, -0.35592418909072876, 1.5943944454193115, -0.13570527732372284, -0.23928417265415192, -0.9614193439483643, -0.011801406741142273, 0.5127674341201782, -0.5188052654266357, 0.13854006717455206, -0.009847418072390843, 0.8938884477869043,0.42623152411379794,-0.1756744384765625,0.1506500244140625,-1.3857879638671875
20230215-1542,2023-02-15 15:42:22Z,u02, 58,100,movements,el-ex, lt, nd,281713.2154331667, -0.14640736858556427, 0.21521041418276698, 0.9185251049058679, -2.8096046447753906, -0.32819509506225586, 1.4241033792495728, -0.1425195336341858, -0.21355299651622772, -0.9664798378944397, -0.10961666703224182, 0.2502046227455139, -0.2808346152305603, 0.12824501684023468, -0.017700007389640424, 0.8922903026719431,0.43250198099054443,-0.3354034423828125,-0.04345703125,-1.1109466552734375
20230215-1542,2023-02-15 15:42:22Z,u02, 59,100,movements,el-ex, lt, nd,281713.22545625, -0.151234978594771, 0.18195317871982794, 0.9284780923757475, -3.4730911254882812, -0.24559688568115234, 1.5029205083847046, -0.148172065615654, -0.1809508502483368, -0.9722663164138794, -0.24629810452461243, 0.049282804131507874, -0.03397446870803833, 0.114688569124005, -0.02670887854406051, 0.8909931305660945,0.4384796832881188,-0.4145965576171875,-0.260772705078125,-0.935333251953125
20230215-1542,2023-02-15 15:42:22Z,u02, 60,100,movements,el-ex, lt, nd,281713.23547925, -0.15483279521751803, 0.14248037948252942, 0.9379783923544167, -4.02236270904541, -0.1642514318227768, 1.528833270072937, -0.15265221893787384, -0.1419987976551056, -0.9780253767967224, -0.25080540776252747, -0.2673181891441345, 0.08935350179672241, 0.09817158257415799, -0.036737566182060276, 0.8895862566219188,0.4445774500105057,-0.382171630859375,-0.518280029296875,-0.8610382080078125
20230215-1542,2023-02-15 15:42:22Z,u02, 61,100,movements,el-ex, lt, nd,281713.24550225004, -0.15650862756787065, 0.10019447091022805, 0.9474391203703016, -3.964892864227295, 0.058409880846738815, 1.6801061630249023, -0.15508873760700226, -0.10002691298723221, -0.9828235507011414, -0.21823278069496155, -0.432504802942276, 0.12985724210739136, 0.0800437810992848, -0.04670357544355784, 0.8878272494065809,0.4507490645799633,-0.37823486328125,-0.43096923828125,-0.8871307373046875
20230215-1542,2023-02-15 15:42:22Z,u02, 62,100,movements,el-ex, lt, nd,281713.25552525005, -0.15699057734707494, 0.06102123412438694, 0.9589382229036906, -3.3602447509765625, 0.03251223638653755, 1.754472255706787, -0.1560555100440979, -0.06098337098956108, -0.9858639240264893, -0.2221488058567047, -0.18866565823554993, 0.06067776679992676, 0.06313920092166232, -0.055510996308511515, 0.8851999279107496,0.4575513330571623,-0.3479461669921875,-0.072021484375,-0.9329986572265625
20230215-1542,2023-02-15 15:42:22Z,u02, 63,100,movements,el-ex, lt, nd,281713.26554825, -0.15637279366568863, 0.02995503593606643, 0.971975236421633, -2.3550503253936768, 0.208507239818573, 1.8069019317626953, -0.15566642582416534, -0.02995055541396141, -0.9873555302619934, -0.13779057562351227, 0.0761541873216629, 0.009190857410430908, 0.04968053411318647, -0.062081256471461135, 0.8819603920358698,0.4645683224209922,-0.2648468017578125,0.145477294921875,-1.0564117431640625
20230215-1542,2023-02-15 15:42:22Z,u02, 64,100,movements,el-ex, lt, nd,281713.27557225, -0.1547263500606463, 0.009591640295434706, 0.9871761393123184, -1.2061680555343628, 0.15577557682991028, 1.793574571609497, -0.1541026383638382, -0.00959149282425642, -0.9880082607269287, -0.12777294218540192, 0.2833647131919861, -0.09387040138244629, 0.04082756334077203, -0.0657948716762122, 0.8781700266101046,0.47203976513149365,-0.3037872314453125,0.3873443603515625,-1.0741424560546875
20230215-1542,2023-02-15 15:42:22Z,u02, 65,100,movements,el-ex, lt, nd,281713.28559525, -0.15324843675660124, 0.0002874487455838759, 1.003232615276002, -0.2235754430294037, 0.17725370824337006, 1.6535807847976685, -0.15264929831027985, -0.00028744875453412533, -0.9882803559303284, -0.14688070118427277, 0.4263738989830017, -0.09289634227752686, 0.03693384679753342, -0.06704998157450082, 0.8742391365396444,0.4794228008375072,-0.2870025634765625,0.40472412109375,-1.1025238037109375
20230215-1542,2023-02-15 15:42:22Z,u02, 66,100,movements,el-ex, lt, nd,281713.29561825003, -0.15123358039372292, -0.001319082340266252, 1.018763331440478, 0.2852388024330139, 0.22869053483009338, 1.4553707838058472, -0.15065760910511017, 0.0013190819881856441, -0.9885851144790649, -0.14048005640506744, 0.4052819013595581, -0.11605966091156006, 0.036264272862813605, -0.06627473676137208, 0.8705270150823005,0.4862874115110491,-0.315765380859375,0.4510955810546875,-1.088775634765625
20230215-1542,2023-02-15 15:42:22Z,u02, 67,100,movements,el-ex, lt, nd,281713.30564125004, -0.14880397250189942, -0.00021911360974725608, 1.0323722277107983, 0.2560133934020996, 0.25992196798324585, 1.1803385019302368, -0.14825542271137238, 0.00021911360090598464, -0.9889490604400635, -0.19213761389255524, 0.49949097633361816, -0.08128714561462402, 0.03659345023734803, -0.06470223302149168, 0.8672979001322587,0.4922083499477498,-0.3541412353515625,0.524932861328125,-1.0523223876953125
20230215-1542,2023-02-15 15:42:22Z,u02, 68,100,movements,el-ex, lt, nd,281713.31566425, -0.1460101322547697, -0.0003858877172522167, 1.0423843344210257, -0.034089282155036926, 0.31245067715644836, 0.7930263876914978, -0.14549188315868378, 0.00038588771712966263, -0.9893593788146973, -0.21365422010421753, 0.5298722982406616, -0.056462764739990234, 0.036151107700544735, -0.06335149343830174, 0.8649091840834565,0.4966002727223513,-0.3728485107421875,0.534515380859375,-1.05474853515625
20230215-1542,2023-02-15 15:42:22Z,u02, 69,100,movements,el-ex, lt, nd,281713.32568825, -0.14261838184089842, -0.003177000306930316, 1.0477394556436168, -0.3809707760810852, 0.35989436507225037, 0.34945738315582275, -0.1421346813440323, 0.0031769948545843363, -0.9898422360420227, -0.25897306203842163, 0.5600859522819519, -0.0806228518486023, 0.03426908092547739, -0.062486114028056525, 0.8636317056687579,0.4990606757627095,-0.435546875,0.634429931640625,-1.0803680419921875
20230215-1542,2023-02-15 15:42:22Z,u02, 70,100,movements,el-ex, lt, nd,281713.33571125, -0.13922656499984698, -0.008227181976855175, 1.048531276105129, -0.6068702340126038, 0.32643067836761475, -0.03596542030572891, -0.13877250254154205, 0.008227089419960976, -0.990290105342865, -0.31609195470809937, 0.7157567143440247, -0.09857708215713501, 0.03126593554723007, -0.06226865258116805, 0.863444542549861,0.4996084660451774,-0.44549560546875,0.7950592041015625,-1.103424072265625
20230215-1542,2023-02-15 15:42:22Z,u02, 71,100,movements,el-ex, lt, nd,281713.34573425003, -0.13568925807339652, -0.013675236710653727, 1.0459204096497028, -0.5264381766319275, 0.4089793562889099, -0.3181344270706177, -0.13526061177253723, 0.013674810528755188, -0.9907156825065613, -0.2809991240501404, 0.821103036403656, -0.13892298936843872, 0.027947945819843778, -0.06213751162850446, 0.8640997637496854,0.4986877943107172,-0.389617919921875,0.8528289794921875,-1.1615753173828125
20230215-1542,2023-02-15 15:42:22Z,u02, 72,100,movements,el-ex, lt, nd,281713.35575725004, -0.1313553435527244, -0.016844991398710304, 1.0411355986446444, -0.2416972666978836, 0.4685784876346588, -0.5315055847167969, -0.13095934689044952, 0.016844194382429123, -0.9912446141242981, -0.2554236650466919, 0.8577286005020142, -0.19089949131011963, 0.025350659997860736, -0.06111486805040125, 0.8653609358351894,0.49676239537414907,-0.386932373046875,0.9071044921875,-1.1862335205078125
20230215-1542,2023-02-15 15:42:22Z,u02, 73,100,movements,el-ex, lt, nd,281713.36578025, -0.1270838814312742, -0.01678539779715374, 1.0350509225796167, 0.05102349817752838, 0.4062357544898987, -0.664772629737854, -0.1267242282629013, 0.016784610226750374, -0.9917959570884705, -0.2390136420726776, 0.9022217392921448, -0.19428491592407227, 0.024135087379752812, -0.05932548105963209, 0.8669979972182518,0.49417849960675825,-0.3093109130859375,0.8598785400390625,-1.193267822265625
20230215-1542,2023-02-15 15:42:22Z,u02, 74,100,movements,el-ex, lt, nd,281713.37580325, -0.12379775881418317, -0.014180474606169098, 1.028183886879345, 0.2689180076122284, 0.2887732982635498, -0.7362132668495178, -0.12346936762332916, 0.014179999008774757, -0.9922470450401306, -0.11256880313158035, 0.6948501467704773, -0.2194380760192871, 0.024256350362840226, -0.057341918111401845, 0.8688345461771296,0.49117217854060835,-0.179718017578125,0.49066162109375,-1.24920654296875
20230215-1542,2023-02-15 15:42:22Z,u02, 75,100,movements,el-ex, lt, nd,281713.38582725, -0.12168303390228274, -0.009123894045326817, 1.0220686075912262, 0.5430558323860168, 0.14880315959453583, -0.5635406374931335, -0.12137791514396667, 0.009123767726123333, -0.9925644397735596, -0.03732872009277344, 0.23611551523208618, -0.31665492057800293, 0.025765948441123728, -0.055262082599214855, 0.8704805830803456,0.488411588607195,-0.1537017822265625,0.014495849609375,-1.3586578369140625
20230215-1542,2023-02-15 15:42:22Z,u02, 76,100,movements,el-ex, lt, nd,281713.39585025003, -0.12179007749279919, -0.0020407234348368557, 1.0186287509250678, 0.694124698638916, -0.15643984079360962, -0.28868135809898376, -0.12148896604776382, 0.0020407219417393208, -0.9925906658172607, -0.02240137755870819, -0.18638212978839874, -0.3823177218437195, 0.028783561172511223, -0.05362988485621173, 0.8714299816252926,0.4867289807325059,-0.1165771484375,-0.358062744140625,-1.34637451171875
20230215-1542,2023-02-15 15:42:22Z,u02, 77,100,movements,el-ex, lt, nd,281713.40587325004, -0.12513528096637727, 0.004879851430808682, 1.0175519027268414, 0.5108306407928467, -0.4508128762245178, -0.08970066159963608, -0.12480746954679489, -0.0048798322677612305, -0.9921689629554749, 0.04024329036474228, -0.5071440935134888, -0.29399436712265015, 0.03258397846744355, -0.05342092098519121, 0.8717042787221666,0.4860207749559609,-0.0733184814453125,-0.6461639404296875,-1.2064361572265625
20230215-1542,2023-02-15 15:42:22Z,u02, 78,100,movements,el-ex, lt, nd,281713.41589625, -0.13052014541758447, 0.00848928228243752, 1.0176300540121592, -0.07219521701335907, -0.5038681626319885, 0.024481309577822685, -0.13014519214630127, -0.008489180356264114, -0.9914585947990417, 0.03575435280799866, -0.7509254813194275, -0.12185317277908325, 0.0354671556071964, -0.054888782802292424, 0.8715904207760481,0.4858596157579243,-0.142578125,-0.8458251953125,-1.0149383544921875
20230215-1542,2023-02-15 15:42:22Z,u02, 79,100,movements,el-ex, lt, nd,281713.42591925, -0.13554182495971284, 0.004012530251761063, 1.0170661596755721, -1.1272159814834595, -0.3820119798183441, 0.008780669420957565, -0.13512609899044037, -0.004012519493699074, -0.9908202886581421, -0.06638143956661224, -0.8986364006996155, 0.07745969295501709, 0.03472045904226889, -0.05817513545914217, 0.8715191132749827,0.48565910009076235,-0.2597503662109375,-0.9196624755859375,-0.81072998046875
20230215-1542,2023-02-15 15:42:22Z,u02, 80,100,movements,el-ex, lt, nd,281713.43594325, -0.13862846292738779, -0.011375786295362804, 1.01516089373296, -2.1682682037353516, -0.13827069103717804, 0.08271268010139465, -0.13817591965198517, 0.011375540867447853, -0.990342378616333, -0.17166900634765625, -0.9152756929397583, 0.270127534866333, 0.028704826074388484, -0.06328386257657523, 0.8716190759919388,0.48523341023660804,-0.343353271484375,-0.8900299072265625,-0.644073486328125
20230215-1542,2023-02-15 15:42:22Z,u02, 81,100,movements,el-ex, lt, nd,281713.44596625003, -0.1390258420061437, -0.03720750584169547, 1.0128681553050018, -3.047698974609375, 0.11715308576822281, 0.1919797658920288, -0.13848251104354858, 0.03719891980290413, -0.9896660447120667, -0.21916821599006653, -0.9058665037155151, 0.39449697732925415, 0.017456722899855198, -0.06972985240757312, 0.8715900866920107,0.48493674050413305,-0.354400634765625,-0.80078125,-0.57513427734375
20230215-1542,2023-02-15 15:42:22Z,u02, 82,100,movements,el-ex, lt, nd,281713.45598925004, -0.13648237606968572, -0.06945712090914416, 1.0105985112305198, -3.370687246322632, 0.44090187549591064, 0.24480170011520386, -0.13573098182678223, 0.06940128654241562, -0.9883120059967041, -0.203014075756073, -0.7686047554016113, 0.3979952335357666, 0.002676228570780703, -0.07639927633005088, 0.8713206163596873,0.4847231367283742,-0.3216094970703125,-0.58135986328125,-0.62841796875
20230215-1542,2023-02-15 15:42:22Z,u02, 83,100,movements,el-ex, lt, nd,281713.46601225, -0.13075597042735096, -0.10221987992024395, 1.008656740744923, -3.11910080909729, 0.73870450258255, 0.24712421000003815, -0.1297031044960022, 0.10204195976257324, -0.9862882494926453, -0.17182578146457672, -0.5432345867156982, 0.31879258155822754, -0.013103485959859966, -0.08175674558943778, 0.8708752389998357,0.4844796298568623,-0.2747344970703125,-0.2803192138671875,-0.737152099609375
20230215-1542,2023-02-15 15:42:22Z,u02, 84,100,movements,el-ex, lt, nd,281713.47603525, -0.12339373365104839, -0.12987941656551513, 1.0074004425332765, -2.3938069343566895, 0.7194631695747375, 0.20730862021446228, -0.12204419076442719, 0.12951457500457764, -0.984038233757019, -0.11750350892543793, -0.24946388602256775, 0.16187942028045654, -0.027028684695385795, -0.08514897282339487, 0.8703624225079825,0.48423997393691426,-0.1986083984375,0.01239013671875,-0.8867645263671875
20230215-1542,2023-02-15 15:42:23Z,u02, 85,100,movements,el-ex, lt, nd,281713.48605825, -0.1175558052272551, -0.1499795668650524, 1.006596101758147, -1.6205438375473022, 0.4765693247318268, 0.11880917102098465, -0.11596860736608505, 0.1494179219007492, -0.9819498658180237, -0.02883727103471756, -0.05067829787731171, 0.06218063831329346, -0.03726226389820347, -0.08738754889526687, 0.869903495818514,0.48398646354412067,-0.0763092041015625,0.1499786376953125,-0.932769775390625
20230215-1542,2023-02-15 15:42:23Z,u02, 86,100,movements,el-ex, lt, nd,281713.49608225, -0.11397719059830916, -0.16246321171343087, 1.0057036627080906, -0.9518020749092102, 0.27451926469802856, -0.015159018337726593, -0.11223295331001282, 0.161749467253685, -0.98042893409729, 0.0876815915107727, 0.02308027446269989, 0.05011582374572754, -0.04362349299279701, -0.08878360064357976, 0.8696775110081134,0.48360692966755003,-0.0069580078125,0.2283477783203125,-0.9223785400390625
20230215-1542,2023-02-15 15:42:23Z,u02, 87,100,movements,el-ex, lt, nd,281713.50610525004, -0.11258908206699139, -0.17043412324104423, 1.0036642812043917, -0.7310284376144409, 0.09885717183351517, -0.18837134540081024, -0.11072353273630142, 0.16961020231246948, -0.9792715311050415, 0.09523589164018631, 0.1346348226070404, 0.073494553565979, -0.04753443879786004, -0.09002623992938347, 0.869834016105723,0.4827262297470946,-0.03216552734375,0.386016845703125,-0.8720245361328125
20230215-1542,2023-02-15 15:42:23Z,u02, 88,100,movements,el-ex, lt, nd,281713.51612825, -0.11134720927258117, -0.1765039390906608, 1.0008536085369824, -0.5482277274131775, 0.3162648677825928, -0.20150764286518097, -0.10939089953899384, 0.17558890581130981, -0.9783670902252197, 0.06311102956533432, 0.24836130440235138, 0.1531413197517395, -0.05061554058425053, -0.09085439858188729, 0.8702561404248719,0.48149533894871865,-0.067596435546875,0.4180755615234375,-0.792572021484375
20230215-1542,2023-02-15 15:42:23Z,u02, 89,100,movements,el-ex, lt, nd,281713.52615125, -0.10685822074818892, -0.18042063305700273, 0.998441160765286, -0.2749026417732239, 0.6402652859687805, -0.19341473281383514, -0.1049237847328186, 0.1794433891773224, -0.9781569838523865, 0.0014539584517478943, 0.2434234619140625, 0.18517297506332397, -0.05351784177236747, -0.08976276469238371, 0.8708349932357546,0.48033823543393517,-0.1532135009765625,0.4868927001953125,-0.82196044921875
20230215-1542,2023-02-15 15:42:23Z,u02, 90,100,movements,el-ex, lt, nd,281713.53617425, -0.10047538796465953, -0.1803764200797368, 0.9961897955505032, 0.21647240221500397, 0.689547061920166, -0.24708646535873413, -0.0986790731549263, 0.17939989268779755, -0.9788146615028381, -0.09040781855583191, 0.40929949283599854, 0.10375362634658813, -0.05512904342663459, -0.08691066046647959, 0.8716593873351423,0.47918404009649596,-0.1894683837890625,0.6649322509765625,-0.947357177734375
20230215-1542,2023-02-15 15:42:23Z,u02, 91,100,movements,el-ex, lt, nd,281713.54619825, -0.09467625059727361, -0.17676415068729942, 0.9937068723412174, 0.4171925187110901, 0.5447094440460205, -0.29873886704444885, -0.09306181967258453, 0.17584507167339325, -0.9800091981887817, -0.06302029639482498, 0.5232974290847778, -0.05815303325653076, -0.055039665781398336, -0.08346280614903054, 0.8726837369200713,0.47794121127775385,-0.095611572265625,0.7117767333984375,-1.1106719970703125
20230215-1542,2023-02-15 15:42:23Z,u02, 92,100,movements,el-ex, lt, nd,281713.55622125004, -0.0905474092575862, -0.17169784389003445, 0.9913268977084125, 0.5195931792259216, 0.39287760853767395, -0.2413235306739807, -0.0890941470861435, 0.17085547745227814, -0.9812597036361694, 0.07232477515935898, 0.5086031556129456, -0.1627526879310608, -0.05390103931852977, -0.08040408445565021, 0.8736701396387493,0.47679180051503095,0.0553741455078125,0.6062164306640625,-1.1776885986328125
20230215-1542,2023-02-15 15:42:23Z,u02, 93,100,movements,el-ex, lt, nd,281713.56624425, -0.08729103158680485, -0.16548171615599758, 0.9901350531936312, 0.6801803112030029, 0.28905853629112244, -0.10327574610710144, -0.08598925918340683, 0.16472747921943665, -0.9825837016105652, 0.18668204545974731, 0.36878085136413574, -0.21927481889724731, -0.051996314778725794, -0.07748896355732922, 0.8743780199054271,0.476187915465089,0.110076904296875,0.4784393310546875,-1.1900634765625
20230215-1542,2023-02-15 15:42:23Z,u02, 94,100,movements,el-ex, lt, nd,281713.57626725, -0.08511273012202586, -0.15803300356090721, 0.9901596995964312, 0.7716676592826843, 0.16962109506130219, -0.02126263827085495, -0.08395067602396011, 0.1573760211467743, -0.9839639663696289, 0.1788908988237381, 0.2732270359992981, -0.1501913070678711, -0.04924439543757012, -0.07478643409920153, 0.8747955724412438,0.4761456390700547,0.07220458984375,0.372589111328125,-1.071807861328125
20230215-1542,2023-02-15 15:42:23Z,u02, 95,100,movements,el-ex, lt, nd,281713.58629025, -0.0835986393276284, -0.15091688923980992, 0.9903046530236741, 0.5811024308204651, 0.16890843212604523, -0.08759039640426636, -0.08255219459533691, 0.15034466981887817, -0.9851810336112976, 0.1339133083820343, 0.1496126353740692, -0.004458248615264893, -0.04647536175085063, -0.07245368952718881, 0.8751292202883618,0.4761715335706397,0.0193939208984375,0.21649169921875,-0.91546630859375
20230215-1542,2023-02-15 15:42:23Z,u02, 96,100,movements,el-ex, lt, nd,281713.59631325, -0.08087173503781182, -0.1456523437519934, 0.9899425979114462, 0.48996400833129883, 0.40947097539901733, -0.03779061511158943, -0.07992822676897049, 0.14513789117336273, -0.9861776828765869, 0.05183684080839157, -0.009060010313987732, 0.10824805498123169, -0.04482561097450707, -0.07001292840353497, 0.8755353329357717,0.4759484139422167,-0.0764923095703125,0.0673980712890625,-0.852325439453125
20230215-1542,2023-02-15 15:42:23Z,u02, 97,100,movements,el-ex, lt, nd,281713.60633725004, -0.07551473603986418, -0.13925991794916742, 0.9908696604392301, 0.8283157348632812, 0.6232532858848572, 0.1256803423166275, -0.07471261918544769, 0.13881023228168488, -0.9874967336654663, -0.04207811504602432, -0.11714272201061249, 0.1376584768295288, -0.043262045850939186, -0.06618188868244852, 0.875756200650167,0.4762347135439817,-0.1311187744140625,0.0259552001953125,-0.8901214599609375
20230215-1542,2023-02-15 15:42:23Z,u02, 98,100,movements,el-ex, lt, nd,281713.61636025005, -0.06879252296246495, -0.12854232386888154, 0.9933124426708894, 1.2791684865951538, 0.6431190967559814, 0.17478877305984497, -0.0681711733341217, 0.1281886249780655, -0.989404022693634, -0.04860430210828781, -0.0426325798034668, 0.05954873561859131, -0.040081317419117336, -0.06075742620508092, 0.8757941376363183,0.4771652395007081,-0.0865631103515625,0.1632537841796875,-0.9629669189453125
20230215-1542,2023-02-15 15:42:23Z,u02, 99,100,movements,el-ex, lt, nd,281713.62638325, -0.0625195256851757, -0.11539054921189919, 0.9955157811436001, 1.3111629486083984, 0.5605672597885132, 0.09225322306156158, -0.0620633140206337, 0.11513464897871017, -0.991409182548523, 0.017858635634183884, 0.10753688216209412, 0.0033262968063354492, -0.03574346258666902, -0.054934651416686686, 0.875904251079235,0.47801293147894747,-0.0011749267578125,0.229888916015625,-1.0038604736328125
20230215-1542,2023-02-15 15:42:23Z,u02, 100,100,movements,el-ex, lt, nd,281713.63640625, -0.056937487815632196, -0.10284387834590336, 0.9972649469232763, 1.1671628952026367, 0.5335252285003662, 0.12075597047805786, -0.056606046855449677, 0.10266268253326416, -0.9931042790412903, 0.08138635754585266, 0.07749786972999573, -0.026137053966522217, -0.03152784512063638, -0.049536355060526144, 0.8760213861250861,0.4786842582366295,0.0283355712890625,0.107269287109375,-1.0374603271484375
20230215-1542,2023-02-15 15:42:23Z,u02, 101,100,movements,el-ex, lt, nd,281713.64642925, -0.05137445937033181, -0.09219938117426096, 0.9993981738848606, 0.9514166712760925, 0.545046329498291, 0.1832459419965744, -0.05113375559449196, 0.09206880629062653, -0.994438886642456, 0.06550756096839905, -0.03291045129299164, -0.047232866287231445, -0.02814135801493661, -0.04459402271602103, 0.8759379492948065,0.4795333575556525,-0.0055999755859375,0.05181884765625,-1.0326995849609375
20230215-1542,2023-02-15 15:42:23Z,u02, 102,100,movements,el-ex, lt, nd,281713.65645225, -0.04561472097921731, -0.08391332536253009, 1.0018643878967282, 0.7052516341209412, 0.5553581118583679, 0.22499898076057434, -0.045438457280397415, 0.08381488174200058, -0.9954448342323303, 0.0292489156126976, -0.011335611343383789, -0.024330556392669678, -0.025838807661209877, -0.04012405716789162, 0.8756761454645381,0.48053498612184015,-0.0131683349609375,0.1105499267578125,-1.004364013671875
20230215-1542,2023-02-15 15:42:23Z,u02, 103,100,movements,el-ex, lt, nd,281713.66647625004, -0.040255507547125306, -0.0776427500004699, 1.0043291849675, 0.5431652665138245, 0.482793927192688, 0.21438850462436676, -0.04012339189648628, 0.07756476104259491, -0.9961796402931213, 0.03606458753347397, 0.07329890877008438, 0.003839552402496338, -0.024333138371440563, -0.03630553817197923, 0.8753288741033621,0.48154865384121887,0.0112762451171875,0.1676788330078125,-1.003143310546875
20230215-1542,2023-02-15 15:42:23Z,u02, 104,100,movements,el-ex, lt, nd,281713.67649925, -0.03544611970059616, -0.07238966430427812, 1.0070270708469347, 0.5382062196731567, 0.44039905071258545, 0.28734979033470154, -0.035345885902643204, 0.07232645899057388, -0.99675452709198, 0.06018722802400589, 0.10197471082210541, -0.02196800708770752, -0.02314545472744587, -0.0329701835015869, 0.874872176054475,0.4826759410333369,0.031219482421875,0.1824188232421875,-1.0111083984375
20230215-1542,2023-02-15 15:42:23Z,u02, 105,100,movements,el-ex, lt, nd,281713.68652225, -0.03124448277942974, -0.06688477007616114, 1.0099688959402326, 0.5489614009857178, 0.35539788007736206, 0.2429654598236084, -0.031169550493359566, 0.06683491170406342, -0.9972770810127258, 0.0545765683054924, 0.12528853118419647, 0.00679856538772583, -0.021705736533925407, -0.029838334631647916, 0.8743331919334314,0.4839214519593617,0.00677490234375,0.2204742431640625,-0.9445648193359375
20230215-1542,2023-02-15 15:42:23Z,u02, 106,100,movements,el-ex, lt, nd,281713.69654525, -0.02781101403719158, -0.06132757257160647, 1.0122586774294944, 0.5552408695220947, 0.28023096919059753, 0.19833675026893616, -0.02775515243411064, 0.06128913536667824, -0.9977340698242188, 0.012542175129055977, 0.18977899849414825, 0.10712432861328125, -0.020074655560713823, -0.027017929640430094, 0.8739251685574776,0.4848936200084195,-0.03924560546875,0.2623138427734375,-0.8443450927734375
20230215-1542,2023-02-15 15:42:23Z,u02, 107,100,movements,el-ex, lt, nd,281713.70656825, -0.02595374944497292, -0.05531272984953292, 1.0142481111603645, 0.6794450879096985, 0.1061536967754364, 0.15917469561100006, -0.02591114677488804, 0.0552845299243927, -0.9981343746185303, -0.037977367639541626, 0.2064189910888672, 0.17704367637634277, -0.017870722072179095, -0.02476790405766851, 0.873562767210582,0.48575233479226815,-0.061859130859375,0.257598876953125,-0.814178466796875
20230215-1542,2023-02-15 15:42:23Z,u02, 108,100,movements,el-ex, lt, nd,281713.71659225004, -0.024848510954739618, -0.047551524973377106, 1.0157713658156988, 0.8459035754203796, 0.11473200470209122, 0.11489459127187729, -0.024817869067192078, 0.04753360524773598, -0.9985612630844116, -0.003563445061445236, 0.19245664775371552, 0.22669541835784912, -0.014730663464066873, -0.022413559466068718, 0.8733166874197384,0.4864140036205496,-0.00372314453125,0.217681884765625,-0.7350311279296875
20230215-1542,2023-02-15 15:42:23Z,u02, 109,100,movements,el-ex, lt, nd,281713.72661525, -0.023760773210972884, -0.03858268464081453, 1.0167981951856158, 0.9219177961349487, 0.09503180533647537, 0.03913474082946777, -0.0237408559769392, 0.03857311233878136, -0.9989737272262573, 0.019926192238926888, 0.15779227018356323, 0.2947500944137573, -0.011067318257680883, -0.01976502042365142, 0.8731892697605161,0.4868546889905395,-0.0204010009765625,0.16485595703125,-0.6909637451171875
20230215-1542,2023-02-15 15:42:23Z,u02, 110,100,movements,el-ex, lt, nd,281713.73663825, -0.02252479151152282, -0.029044662955146378, 1.0170370610354709, 0.9727482199668884, 0.14207682013511658, -0.026439210399985313, -0.022513387724757195, 0.02904057875275612, -0.9993246793746948, -0.00489136204123497, 0.09780575335025787, 0.2950705289840698, -0.007200740574723604, -0.016906072204420218, 0.8732397303719119,0.48694438806844975,-0.0213623046875,0.094329833984375,-0.7231903076171875
20230215-1542,2023-02-15 15:42:23Z,u02, 111,100,movements,el-ex, lt, nd,281713.74666125, -0.021492774702406386, -0.019109738405609353, 1.0168625883125821, 0.9813312888145447, 0.05583114176988602, -0.05846862494945526, -0.021487196907401085, 0.019108574837446213, -0.9995865225791931, 0.01306438073515892, 0.04897616431117058, 0.23802036046981812, -0.0031145743538383867, -0.014037502894798222, 0.8733689371237923,0.48684692905133126,0.0153961181640625,0.035614013671875,-0.819183349609375
20230215-1542,2023-02-15 15:42:23Z,u02, 112,100,movements,el-ex, lt, nd,281713.75668425, -0.020944797585233828, -0.009276156862911118, 1.016494999636541, 0.9920566082000732, 0.07652176916599274, -0.03553907200694084, -0.020942365750670433, 0.00927602406591177, -0.9997376799583435, 0.07149477303028107, -0.009169189259409904, 0.1163758635520935, 0.001044631004460589, -0.011405383429329927, 0.8735177672633094,0.4866575239001745,0.0804901123046875,-0.02197265625,-0.930755615234375
20230215-1542,2023-02-15 15:42:23Z,u02, 113,100,movements,el-ex, lt, nd,281713.76670725003, -0.01979794256540737, 0.0016270900678550736, 1.0164464803579234, 1.1715843677520752, 0.1572570949792862, -0.03460685908794403, -0.019796622917056084, -0.0016270893393084407, -0.9998027086257935, 0.10907582938671112, -0.018865441903471947, 0.03953659534454346, 0.005527701132177895, -0.00825182855350751, 0.8735713521441282,0.48659477730146655,0.076629638671875,0.0084991455078125,-0.9684906005859375
20230215-1542,2023-02-15 15:42:23Z,u02, 114,100,movements,el-ex, lt, nd,281713.77673125, -0.018200122478991203, 0.014478117276387327, 1.0159998361584357, 1.3680740594863892, 0.15062102675437927, -0.11004488915205002, -0.018197210505604744, -0.014477611519396305, -0.999729573726654, 0.07224387675523758, 0.08106698840856552, 0.03758668899536133, 0.010750959274272451, -0.004429455871190241, 0.8736921293876222,0.48634026993550444,0.0311737060546875,0.111480712890625,-0.94635009765625
20230215-1542,2023-02-15 15:42:23Z,u02, 115,100,movements,el-ex, lt, nd,281713.78675425, -0.016799415383351352, 0.028328949591615974, 1.0148314882316152, 1.3752970695495605, 0.13748472929000854, -0.17310604453086853, -0.01679188571870327, -0.028325160965323448, -0.9994577169418335, 0.037162404507398605, 0.1428423970937729, 0.067313551902771, 0.016460074885385884, -0.0004582170869693138, 0.8739425253522031,0.4857503467148854,0.0158538818359375,0.079742431640625,-0.9103240966796875
20230215-1542,2023-02-15 15:42:23Z,u02, 116,100,movements,el-ex, lt, nd,281713.79677725, -0.01527083799829712, 0.04179483400318143, 1.012979038078253, 1.2823410034179688, 0.15412548184394836, -0.24201346933841705, -0.015256909653544426, -0.04178266599774361, -0.9990102052688599, 0.009260241873562336, 0.050358131527900696, 0.11146754026412964, 0.021975121151917337, 0.0034612322238605072, 0.874313811248146,0.4848509242893064,-0.0522003173828125,-0.08367919921875,-0.877899169921875
20230215-1542,2023-02-15 15:42:23Z,u02, 117,100,movements,el-ex, lt, nd,281713.80680025, -0.013873551668808997, 0.0541024304304157, 1.010361826534219, 1.140101671218872, 0.08107364922761917, -0.3166445195674896, -0.013852807693183422, -0.05407604202628136, -0.9984407424926758, -0.09147857874631882, -0.12613023817539215, 0.11677265167236328, 0.027024616428184375, 0.00702193962901931, 0.8748364630453449,0.4836128849265204,-0.145111083984375,-0.2817840576171875,-0.891876220703125
20230215-1542,2023-02-15 15:42:23Z,u02, 118,100,movements,el-ex, lt, nd,281713.81682325003, -0.013470646032856134, 0.0646978794848758, 1.0073565669606275, 0.9648470282554626, -0.01750778779387474, -0.29517942667007446, -0.013442056253552437, -0.06465275585651398, -0.9978172779083252, -0.14750760793685913, -0.32299676537513733, 0.0819389820098877, 0.03157512377047724, 0.00971439374107665, 0.8754402579366223,0.4821960391165848,-0.14788818359375,-0.4887237548828125,-0.93084716796875
20230215-1542,2023-02-15 15:42:23Z,u02, 119,100,movements,el-ex, lt, nd,281713.82684725, -0.013628247763447256, 0.07334455507716567, 1.0045357382636753, 0.7611514329910278, -0.038115326315164566, -0.3021667003631592, -0.013591187074780464, -0.07327881455421448, -0.997218906879425, -0.1129041388630867, -0.48345333337783813, 0.10027676820755005, 0.03541323262467676, 0.011681730477570254, 0.8760036710279807,0.4808607186051033,-0.1257781982421875,-0.5448150634765625,-0.825775146484375
20230215-1542,2023-02-15 15:42:23Z,u02, 120,100,movements,el-ex, lt, nd,281713.83687025, -0.013726034345160239, 0.08075001800718347, 1.001411432761642, 0.7019120454788208, -0.031049694865942, -0.34872114658355713, -0.013680878095328808, -0.08066228777170181, -0.9966475963592529, -0.14285899698734283, -0.3847612738609314, 0.23392176628112793, 0.038700120673549866, 0.013360498079970912, 0.8766415374856225,0.4793991959864273,-0.2000732421875,-0.3546142578125,-0.7386016845703125
20230215-1542,2023-02-15 15:42:23Z,u02, 121,100,movements,el-ex, lt, nd,281713.84689325, -0.013892395115416255, 0.0873856328351265, 0.9976362783347963, 0.6197145581245422, -0.062123723328113556, -0.40295252203941345, -0.013838941231369972, -0.0872744619846344, -0.9960881471633911, -0.2136085331439972, -0.1489620804786682, 0.2329351305961609, 0.04167542905074766, 0.014801039240717536, 0.8774345551734973,0.4776534793812757,-0.2072906494140625,-0.127227783203125,-0.833770751953125
20230215-1542,2023-02-15 15:42:23Z,u02, 122,100,movements,el-ex, lt, nd,281713.85691625, -0.014532342195213436, 0.09399589511153823, 0.993844734134598, 0.7004634737968445, -0.13364584743976593, -0.36272546648979187, -0.014467681758105755, -0.093857541680336, -0.9954805374145508, -0.12380743026733398, 0.02906874567270279, 0.05527973175048828, 0.04475752350461462, 0.016015890235676608, 0.8782227701477983,0.47588335500764856,-0.041015625,-0.0434112548828125,-1.050933837890625
20230215-1542,2023-02-15 15:42:23Z,u02, 123,100,movements,el-ex, lt, nd,281713.86693925003, -0.01632709072181933, 0.10177908729545798, 0.9905958215027919, 0.8193622827529907, -0.28947246074676514, -0.3114049732685089, -0.016241876408457756, -0.10160345584154129, -0.9946923851966858, 0.06516158580780029, 0.07810494303703308, -0.1470770239830017, 0.04862820332078358, 0.017003107284819796, 0.8788562563373503,0.47429729379637314,0.1156005859375,0.01141357421875,-1.1905364990234375
20230215-1542,2023-02-15 15:42:23Z,u02, 124,100,movements,el-ex, lt, nd,281713.87696225004, -0.019584434351182484, 0.1098100835056058, 0.9877085221568659, 0.7419782876968384, -0.40202590823173523, -0.2966526448726654, -0.019465232267975807, -0.10958953201770782, -0.9937863349914551, 0.18213921785354614, 0.15599152445793152, -0.19569730758666992, 0.05295263695980652, 0.01740290155230191, 0.8793980820018772,0.47281297870351535,0.1856689453125,0.0577850341796875,-1.160797119140625
20230215-1542,2023-02-15 15:42:23Z,u02, 125,100,movements,el-ex, lt, nd,281713.88698625, -0.023454828124713233, 0.11668787672782932, 0.9850718200698242, 0.6189713478088379, -0.4220086634159088, -0.23950083553791046, -0.02329319156706333, -0.11642324924468994, -0.9929265379905701, 0.20295020937919617, 0.14286676049232483, -0.13839060068130493, 0.05691216749797343, 0.017255445723092018, 0.879900138212719,0.47142230485396514,0.146942138671875,-0.039215087890625,-1.1055450439453125
20230215-1542,2023-02-15 15:42:23Z,u02, 126,100,movements,el-ex, lt, nd,281713.89700925, -0.0276263552936962, 0.12221628617581923, 0.9830480348016244, 0.4529610276222229, -0.4533705711364746, -0.20168741047382355, -0.02741679921746254, -0.12191225588321686, -0.9921621680259705, 0.13413681089878082, 0.013712204992771149, -0.09063202142715454, 0.06034220334434762, 0.016665736462529286, 0.8802831690440176,0.47030047532131836,0.0734710693359375,-0.1495208740234375,-1.0528411865234375
20230215-1542,2023-02-15 15:42:23Z,u02, 127,100,movements,el-ex, lt, nd,281713.90703225, -0.031915196171686845, 0.1259488060280115, 0.9810655331956636, 0.286876916885376, -0.44296160340309143, -0.204743891954422, -0.03165701776742935, -0.12561607360839844, -0.991573691368103, 0.07889826595783234, -0.03165622055530548, -0.025622904300689697, 0.06300715294155315, 0.015596194810512495, 0.8806944397657527,0.4692164309664244,0.0164642333984375,-0.153350830078125,-0.994354248046875
20230215-1542,2023-02-15 15:42:23Z,u02, 128,100,movements,el-ex, lt, nd,281713.91705525, -0.03606713710115352, 0.12875721123780626, 0.9795027061243724, 0.2774493396282196, -0.43556174635887146, -0.12750902771949768, -0.035760827362537384, -0.1284017413854599, -0.9910772442817688, 0.02683447301387787, -0.023560523986816406, -0.002575099468231201, 0.06522749767574633, 0.014378382165603974, 0.8810243719487688,0.4683319146980353,-0.0162506103515625,-0.14263916015625,-1.0093841552734375
20230215-1542,2023-02-15 15:42:23Z,u02, 129,100,movements,el-ex, lt, nd,281713.92707825004, -0.04087675157257595, 0.13191274187689403, 0.9784330703506647, 0.33172640204429626, -0.5518372654914856, -0.11314854025840759, -0.04051033407449722, -0.1315305083990097, -0.9904840588569641, 0.03265209496021271, 0.010375738143920898, -0.02573603391647339, 0.06774856439696743, 0.012965730620693644, 0.8812311251849326,0.4676257501691157,0.004669189453125,-0.0967864990234375,-1.0054168701171875
20230215-1542,2023-02-15 15:42:23Z,u02, 130,100,movements,el-ex, lt, nd,281713.93710125, -0.04668436196827533, 0.1355340329511789, 0.9774228844651479, 0.3669632375240326, -0.6203894019126892, -0.11387984454631805, -0.04623943567276001, -0.1351194679737091, -0.9897497892379761, 0.0495658814907074, 0.0519438236951828, 0.021854281425476074, 0.07070477330403184, 0.01122228816523524, 0.8814140816359057,0.46688785477844785,-0.021270751953125,-0.080078125,-0.9161376953125
20230215-1542,2023-02-15 15:42:23Z,u02, 131,100,movements,el-ex, lt, nd,281713.94712525, -0.05317527932643901, 0.13946580747686846, 0.9765011570843043, 0.4021522104740143, -0.69854336977005, -0.1101253479719162, -0.05263415724039078, -0.1390141248703003, -0.9888906478881836, -0.011666350066661835, 0.05565537512302399, 0.1186666488647461, 0.0739532968584406, 0.009251188647050457, 0.8815660072353175,0.4661402896474497,-0.096038818359375,-0.0908355712890625,-0.8420257568359375
20230215-1542,2023-02-15 15:42:23Z,u02, 132,100,movements,el-ex, lt, nd,281713.95714825, -0.060620092016196975, 0.14381729897818038, 0.9756163969909776, 0.45607805252075195, -0.799412190914154, -0.112383171916008, -0.05995751917362213, -0.14332203567028046, -0.987858235836029, -0.03060336410999298, 0.033886030316352844, 0.15471309423446655, 0.07760466377240252, 0.006956952447770561, 0.8816952175403971,0.46534150660120116,-0.060943603515625,-0.13409423828125,-0.8366241455078125
20230215-1542,2023-02-15 15:42:23Z,u02, 133,100,movements,el-ex, lt, nd,281713.96717125, -0.06872578495562057, 0.14879014105318508, 0.9748801120896928, 0.5067310929298401, -0.8334316611289978, -0.10332349687814713, -0.06791295111179352, -0.14824174344539642, -0.9866165518760681, 0.037471696734428406, -0.014355897903442383, 0.13479465246200562, 0.08167796756383018, 0.004520538282205878, 0.8817667030417935,0.46453820958526415,-0.0135498046875,-0.1739501953125,-0.8743743896484375
20230215-1542,2023-02-15 15:42:23Z,u02, 134,100,movements,el-ex, lt, nd,281713.97719425004, -0.07702466349854063, 0.15397643565458843, 0.9741630241058364, 0.5096325874328613, -0.8355802893638611, -0.10198898613452911, -0.07603815197944641, -0.1533687263727188, -0.9852391481399536, 0.0702398493885994, -0.005933001637458801, 0.07840937376022339, 0.08588491315812445, 0.0020477121428621224, 0.8818177363408922,0.4636994056903158,0.00286865234375,-0.1412811279296875,-0.9564056396484375
20230215-1542,2023-02-15 15:42:23Z,u02, 135,100,movements,el-ex, lt, nd,281713.98721725, -0.08525246469929523, 0.15926474417814385, 0.9739489234978956, 0.5361959338188171, -0.8134962916374207, -0.023189088329672813, -0.08407159894704819, -0.15859229862689972, -0.9837583303451538, 0.09377621859312057, 0.021827802062034607, -0.02611410617828369, 0.09011500458927109, -0.0003491793179912373, 0.8817381519826087,0.463051790275221,0.00457763671875,-0.1349639892578125,-1.062042236328125
20230215-1542,2023-02-15 15:42:23Z,u02, 136,100,movements,el-ex, lt, nd,281713.99724125, -0.09349873914170742, 0.16466855847268685, 0.9745708284987498, 0.5400633811950684, -0.8022247552871704, 0.04765738919377327, -0.092099629342556, -0.1639253795146942, -0.9821640253067017, 0.08938359469175339, 0.03729270398616791, -0.12068021297454834, 0.09439690784528482, -0.0026874683236773663, 0.8814513519903239,0.4627370111856081,-0.0003204345703125,-0.1200103759765625,-1.11981201171875
20230215-1542,2023-02-15 15:42:23Z,u02, 137,100,movements,el-ex, lt, nd,281714.00726425, -0.10159721138598535, 0.1699723013952273, 0.975757747402767, 0.5246725678443909, -0.7810808420181274, 0.06631573289632797, -0.09996096789836884, -0.1691550463438034, -0.9805071949958801, 0.11108465492725372, 0.0439109206199646, -0.12946289777755737, 0.09859955935987377, -0.004952435932995474, 0.881026026200614,0.4626517453986655,0.0098419189453125,-0.144866943359375,-1.0775146484375
20230215-1542,2023-02-15 15:42:23Z,u02, 138,100,movements,el-ex, lt, nd,281714.01728725, -0.1095675292565574, 0.1747579473484152, 0.9768542297166891, 0.4310760498046875, -0.7713749408721924, 0.05648946762084961, -0.10768291354179382, -0.1738697737455368, -0.9788634777069092, 0.10328841209411621, -0.00018721818923950195, -0.06085515022277832, 0.10254386549065554, -0.007281442432804491, 0.8806255385207885,0.46252626288956855,-0.0216064453125,-0.202178955078125,-1.0039215087890625
20230215-1542,2023-02-15 15:42:23Z,u02, 139,100,movements,el-ex, lt, nd,281714.02731025004, -0.11768593964869419, 0.1786878103253958, 0.9779949796291778, 0.3802144229412079, -0.8038814663887024, 0.0795312151312828, -0.11554496735334396, -0.17773842811584473, -0.9772709012031555, 0.06754085421562195, -0.02987264096736908, 0.013281643390655518, 0.10614679546429336, -0.00986962221403312, 0.8802261026890008,0.4624255032282541,-0.0851898193359375,-0.187255859375,-0.9366912841796875
20230215-1542,2023-02-15 15:42:23Z,u02, 140,100,movements,el-ex, lt, nd,281714.03733325005, -0.12626364384380556, 0.1824046078166418, 0.9793830116666963, 0.3831569254398346, -0.8560429811477661, 0.09798984974622726, -0.12383931130170822, -0.1813948154449463, -0.9755817651748657, 0.008452378213405609, 0.02300858497619629, 0.05688059329986572, 0.10976360968970385, -0.012691503969559379, 0.8797623776680789,0.4623950289464803,-0.1186981201171875,-0.1421356201171875,-0.906982421875
20230215-1542,2023-02-15 15:42:23Z,u02, 141,100,movements,el-ex, lt, nd,281714.04735625, -0.13503784636541857, 0.18651462527565385, 0.980988200603366, 0.47868189215660095, -0.8173845410346985, 0.1037416160106659, -0.13229289650917053, -0.18543510138988495, -0.9737106561660767, 0.03201216459274292, 0.028071224689483643, 0.06616365909576416, 0.11359926025827657, -0.015488257789842447, 0.8792256765388794,0.46240419841503855,-0.0930023193359375,-0.19525146484375,-0.911224365234375
20230215-1542,2023-02-15 15:42:23Z,u02, 142,100,movements,el-ex, lt, nd,281714.05738025, -0.1432258413150493, 0.1914268225278446, 0.9825782308033082, 0.5147938132286072, -0.7582340836524963, 0.07821441441774368, -0.14012940227985382, -0.19025984406471252, -0.9716814756393433, 0.021080374717712402, -0.027269423007965088, 0.05079835653305054, 0.1176491271210458, -0.017830647326344904, 0.8786660513496781,0.4623707602410492,-0.1552734375,-0.1923370361328125,-0.948150634765625
20230215-1542,2023-02-15 15:42:23Z,u02, 143,100,movements,el-ex, lt, nd,281714.06740325, -0.15090209015183412, 0.19645617414540048, 0.9842635303635382, 0.5192050337791443, -0.7152738571166992, 0.095476895570755, -0.14743836224079132, -0.19519490003585815, -0.9696189165115356, -0.007712990045547485, 0.04031822085380554, -0.033692240715026855, 0.12163160491720494, -0.01990687506871292, 0.8780768272900915,0.4623749872927718,-0.1162872314453125,-0.1564788818359375,-1.0717620849609375
20230215-1542,2023-02-15 15:42:23Z,u02, 144,100,movements,el-ex, lt, nd,281714.07742625003, -0.15822224925233927, 0.20125148141071675, 0.9857678809551031, 0.4474983811378479, -0.6832773089408875, 0.04273485392332077, -0.1543828547000885, -0.1998957097530365, -0.9675782322883606, 0.06785029172897339, 0.006734713912010193, -0.1536528468132019, 0.1254268382423717, -0.021885863932006207, 0.8775305221177989,0.4623086336429042,-0.1068267822265625,-0.2264251708984375,-1.12701416015625
20230215-1542,2023-02-15 15:42:23Z,u02, 145,100,movements,el-ex, lt, nd,281714.08744925004, -0.1654735679668266, 0.20419718885217347, 0.9863612262671975, 0.09332752972841263, -0.764007031917572, -0.02615015208721161, -0.1612972468137741, -0.2027810961008072, -0.9658483266830444, 0.004330113530158997, -0.033196061849594116, -0.13411200046539307, 0.12839004345749738, -0.024327442663734593, 0.8772348708727461,0.46193414946849803,-0.1869354248046875,-0.23126220703125,-1.0630035400390625
20230215-1542,2023-02-15 15:42:23Z,u02, 146,100,movements,el-ex, lt, nd,281714.09747225, -0.1738589054524281, 0.20205644883049642, 0.9849364607027853, -0.5719460844993591, -0.9450032114982605, -0.18127849698066711, -0.16946515440940857, -0.20068436861038208, -0.9648872017860413, 0.004792332649230957, -0.033324405550956726, -0.05180591344833374, 0.1293753475298971, -0.028607873087644804, 0.8775051594933491,0.4608994139252378,-0.1208953857421875,-0.2565765380859375,-0.958099365234375
20230215-1542,2023-02-15 15:42:23Z,u02, 147,100,movements,el-ex, lt, nd,281714.10749625, -0.18308629911053115, 0.19422603502383703, 0.9808874261178774, -1.0984400510787964, -1.0572967529296875, -0.31711867451667786, -0.17864184081554413, -0.1930071860551834, -0.964798092842102, 0.061606958508491516, -0.0983746200799942, 0.06143200397491455, 0.12802834031298524, -0.03478088275553609, 0.8784662856255937,0.45901624890713333,-0.1727294921875,-0.323699951171875,-0.8611907958984375
20230215-1542,2023-02-15 15:42:23Z,u02, 148,100,movements,el-ex, lt, nd,281714.11751925, -0.19194047507116402, 0.18398611443796375, 0.9753598142193262, -0.960788905620575, -0.8598161339759827, -0.3241635262966156, -0.18754442036151886, -0.18294985592365265, -0.9650681018829346, -0.05586375296115875, -0.14490047097206116, 0.15117955207824707, 0.12549133594852688, -0.04144720550443415, 0.8797637847177654,0.4566726584498535,-0.291473388671875,-0.31549072265625,-0.7889556884765625
20230215-1542,2023-02-15 15:42:23Z,u02, 149,100,movements,el-ex, lt, nd,281714.12754225003, -0.19935905177254792, 0.1785486606954545, 0.9711567526860686, -0.314085990190506, -0.8235918283462524, -0.30575889348983765, -0.1948927640914917, -0.17760150134563446, -0.9646110534667969, -0.1367264688014984, -0.11193399131298065, 0.13224416971206665, 0.1247189064333016, -0.046256445611829906, 0.8806514199142705,0.45470711347667075,-0.36505126953125,-0.2145538330078125,-0.86444091796875
20230215-1542,2023-02-15 15:42:23Z,u02, 150,100,movements,el-ex, lt, nd,281714.13756525004, -0.20741387072926704, 0.17742235571476955, 0.9674677359187337, -0.12883518636226654, -0.8885157108306885, -0.34680992364883423, -0.20269718766212463, -0.17649298906326294, -0.963205099105835, -0.15113885700702667, 0.07808907330036163, 0.11808180809020996, 0.12596561132115927, -0.050300206953327375, 0.8813113671932886,0.45265089967004724,-0.288818359375,-0.0306243896484375,-0.8316497802734375
20230215-1542,2023-02-15 15:42:23Z,u02, 151,100,movements,el-ex, lt, nd,281714.14758825, -0.21510125272377192, 0.17663543101939952, 0.9637087305936013, -0.186504527926445, -0.7716569900512695, -0.3371349573135376, -0.21012522280216217, -0.17571835219860077, -0.9617538452148438, -0.009937003254890442, 0.11939817667007446, 0.09967803955078125, 0.1272598384072011, -0.05411112566164282, 0.8819709337788867,0.4505598438731573,-0.1907806396484375,-0.12908935546875,-0.93304443359375
20230215-1542,2023-02-15 15:42:23Z,u02, 152,100,movements,el-ex, lt, nd,281714.15761125, -0.22200411680363913, 0.1753047886545719, 0.95993111957303, -0.24737587571144104, -0.7373557090759277, -0.33604732155799866, -0.21681031584739685, -0.17440825700759888, -0.9605076909065247, 0.01971256732940674, -0.01312224566936493, -0.06004589796066284, 0.12812469861110226, -0.057707951083992445, 0.8826452821503555,0.44854355041842536,-0.20599365234375,-0.215728759765625,-1.0887908935546875
20230215-1542,2023-02-15 15:42:23Z,u02, 153,100,movements,el-ex, lt, nd,281714.16763525, -0.22812432310969138, 0.17336937736096672, 0.9558338098346023, -0.29368168115615845, -0.6112883687019348, -0.3536277711391449, -0.2227606475353241, -0.17250218987464905, -0.9594898223876953, 0.020749568939208984, -0.04507286846637726, -0.1604137420654297, 0.12852663222468744, -0.06112284452124438, 0.8834045335613284,0.4464765192284591,-0.2025604248046875,-0.1933135986328125,-1.1279449462890625
20230215-1542,2023-02-15 15:42:23Z,u02, 154,100,movements,el-ex, lt, nd,281714.17765825003, -0.2329536744486898, 0.1725439772177736, 0.9519728330382118, 0.025467805564403534, -0.49121543765068054, -0.3400680124759674, -0.2274245321750641, -0.17168910801410675, -0.9585410356521606, 0.008003175258636475, 0.021817296743392944, -0.17114341259002686, 0.1291209193298421, -0.06369668519099105, 0.8841235923627642,0.44451762149950586,-0.2410430908203125,-0.102020263671875,-1.1194000244140625
20230215-1542,2023-02-15 15:42:23Z,u02, 155,100,movements,el-ex, lt, nd,281714.18768125004, -0.23725605624129914, 0.17683427408186078, 0.9498070932681346, 0.6925320625305176, -0.45402705669403076, -0.27922841906547546, -0.23137116432189941, -0.17591410875320435, -0.9568289518356323, -0.024976462125778198, 0.11190350353717804, -0.14830410480499268, 0.1318827382673903, -0.06474931286969882, 0.8844155630780611,0.44297142207073736,-0.271514892578125,-0.0482177734375,-1.071807861328125
20230215-1542,2023-02-15 15:42:23Z,u02, 156,100,movements,el-ex, lt, nd,281714.19770425, -0.24164534510173966, 0.1861214834099371, 0.9491759263613166, 1.0541470050811768, -0.42687559127807617, -0.2846527397632599, -0.23516760766506195, -0.18504875898361206, -0.9541767239570618, -0.05963215231895447, 0.13629695773124695, -0.04560965299606323, 0.13689376143702145, -0.06458908876761789, 0.8842942185593327,0.4417151593397223,-0.3115081787109375,-0.06781005859375,-0.905609130859375
20230215-1542,2023-02-15 15:42:23Z,u02, 157,100,movements,el-ex, lt, nd,281714.20772725, -0.24573532986941946, 0.19963817532422612, 0.9498290497233212, 1.5934998989105225, -0.3778150975704193, -0.23082062602043152, -0.23843790590763092, -0.19831471145153046, -0.9506937861442566, -0.07001850008964539, 0.08308033645153046, 0.10798138380050659, 0.143719360783219, -0.06322861046733996, 0.8838186540807548,0.44069447428312186,-0.29541015625,-0.1785888671875,-0.8304901123046875
20230215-1542,2023-02-15 15:42:23Z,u02, 158,100,movements,el-ex, lt, nd,281714.21775025, -0.25059288488591563, 0.217520461662192, 0.952316648177297, 1.9117884635925293, -0.5053701400756836, -0.17462393641471863, -0.24213489890098572, -0.2158091813325882, -0.9459371566772461, -0.039466023445129395, 0.028477028012275696, 0.1221609115600586, 0.15265855495124775, -0.06104740349030332, 0.882802765697438,0.4400318964734852,-0.26953125,-0.1214752197265625,-0.79052734375
20230215-1542,2023-02-15 15:42:23Z,u02, 159,100,movements,el-ex, lt, nd,281714.227774125, -0.2566424817628907, 0.23590890170875764, 0.9554604693229253, 1.746851921081543, -0.5199975967407227, -0.15085096657276154, -0.24680380523204803, -0.23372681438922882, -0.9404571652412415, -0.015693113207817078, 0.15367922186851501, 0.19953614473342896, 0.16207336791552715, -0.059191591912308175, 0.8815434319967121,0.4394426229558458,-0.259246826171875,-0.1556549072265625,-0.7324676513671875
20230215-1542,2023-02-15 15:42:23Z,u02, 160,100,movements,el-ex, lt, nd,281714.237797125, -0.26174214899060516, 0.2522480818506126, 0.958613731086243, 1.6204841136932373, -0.3460201621055603, -0.09520314633846283, -0.25057485699653625, -0.24958153069019318, -0.9353722929954529, -0.005330264568328857, -0.09075048565864563, 0.13039487600326538, 0.1703636852523298, -0.05735914397863502, 0.8803094767641345,0.43902334552586453,-0.2465057373046875,-0.5057373046875,-0.9027099609375
20230215-1542,2023-02-15 15:42:23Z,u02, 161,100,movements,el-ex, lt, nd,281714.247820125, -0.2660723503155937, 0.2688336766798488, 0.962220330510033, 1.7317014932632446, -0.35428500175476074, -0.07646190375089645, -0.25349944829940796, -0.26560717821121216, -0.9301563501358032, 0.03139251470565796, -0.28071847558021545, -0.04587209224700928, 0.17857898401377384, -0.055057813480120024, 0.8789489317159777,0.43877902466882396,-0.1783905029296875,-0.4455413818359375,-1.008453369140625
20230215-1542,2023-02-15 15:42:23Z,u02, 162,100,movements,el-ex, lt, nd,281714.25784312503, -0.2712663414726088, 0.2854062273336386, 0.9668576901104218, 1.665772795677185, -0.40887555480003357, 0.036851078271865845, -0.2571123242378235, -0.28154727816581726, -0.9244589805603027, 0.12776359915733337, -0.00984981656074524, -0.09678125381469727, 0.18697807194593027, -0.053006723159481156, 0.8772961255688166,0.43884062733397183,-0.1081695556640625,-0.20245361328125,-1.006622314453125
20230215-1542,2023-02-15 15:42:23Z,u02, 163,100,movements,el-ex, lt, nd,281714.26786612504, -0.27695694270756005, 0.3000332791683712, 0.9716186338340878, 1.3776921033859253, -0.44537949562072754, 0.06661967933177948, -0.2612147927284241, -0.29555198550224304, -0.9189210534095764, 0.13282737135887146, 0.09766077995300293, -0.05565786361694336, 0.1946257196954929, -0.05157825348503755, 0.8756280498559962,0.4390171866632151,-0.1689300537109375,-0.2215423583984375,-0.946197509765625
20230215-1542,2023-02-15 15:42:23Z,u02, 164,100,movements,el-ex, lt, nd,281714.277890125, -0.28302297162258583, 0.3119765057572104, 0.9760672539329222, 1.118955373764038, -0.4979971647262573, 0.05776573345065117, -0.26577940583229065, -0.30694034695625305, -0.9138648509979248, 0.07933229207992554, 0.04157474637031555, -0.020613908767700195, 0.20117706159676624, -0.050944774489262254, 0.8740847099136466,0.43921339694108164,-0.1722412109375,-0.3359222412109375,-0.9189605712890625
20230215-1542,2023-02-15 15:42:23Z,u02, 165,100,movements,el-ex, lt, nd,281714.287913125, -0.28904576752571975, 0.3220807510697975, 0.9795854115644983, 1.047377109527588, -0.4870379865169525, 0.04070501774549484, -0.27038073539733887, -0.31654098629951477, -0.9092282652854919, 0.10773733258247375, -0.06888073682785034, 0.03409093618392944, 0.2068950374482255, -0.05079664945329393, 0.8727961156980106,0.4391369285500197,-0.1840667724609375,-0.388427734375,-0.8126373291015625
20230215-1542,2023-02-15 15:42:23Z,u02, 166,100,movements,el-ex, lt, nd,281714.297936125, -0.29573491500263477, 0.3317697061401071, 0.9831516031300023, 0.9823573231697083, -0.6237093210220337, 0.0372660793364048, -0.2755497992038727, -0.3257167339324951, -0.9044229984283447, 0.06075185537338257, -0.04362225532531738, 0.14410805702209473, 0.2125711570535511, -0.051009910961042876, 0.871483106764517,0.43900887920336684,-0.2139434814453125,-0.3279266357421875,-0.69561767578125
20230215-1542,2023-02-15 15:42:23Z,u02, 167,100,movements,el-ex, lt, nd,281714.307959125, -0.3034732280465992, 0.3404281568021297, 0.9867021595306883, 0.8344274759292603, -0.6726347804069519, 0.0973270982503891, -0.28168684244155884, -0.3338907063007355, -0.899538516998291, 0.10337263345718384, 0.021268635988235474, 0.280550479888916, 0.21802858350153598, -0.051906428666548154, 0.8701750623058291,0.4388219845977112,-0.1348876953125,-0.3703460693359375,-0.5743255615234375
20230215-1542,2023-02-15 15:42:23Z,u02, 168,100,movements,el-ex, lt, nd,281714.31798212504, -0.31172388052593364, 0.3463291335081748, 0.9900173305683336, 0.4640347957611084, -0.7242748141288757, 0.15530037879943848, -0.2884896397590637, -0.3394472002983093, -0.8952928781509399, 0.18532496690750122, -0.11235028505325317, 0.34271109104156494, 0.2224186570895263, -0.05369815474281055, 0.8690026554237935,0.43872656714137437,-0.0874481201171875,-0.497283935546875,-0.550750732421875
20230215-1542,2023-02-15 15:42:23Z,u02, 169,100,movements,el-ex, lt, nd,281714.328005125, -0.31974879827816427, 0.34928782473947145, 0.9931011216360129, 0.28516969084739685, -0.6581828594207764, 0.1564195305109024, -0.2953479290008545, -0.3422287106513977, -0.8919916152954102, 0.233717679977417, -0.1440536081790924, 0.28751468658447266, 0.225510493546666, -0.05611770675015944, 0.8679922254286229,0.4388453360516289,-0.04132080078125,-0.446929931640625,-0.7008514404296875
20230215-1542,2023-02-15 15:42:23Z,u02, 170,100,movements,el-ex, lt, nd,281714.338029125, -0.3265831404426374, 0.3507780159886681, 0.9948986463209138, 0.052681852132081985, -0.6134694814682007, 0.09621451050043106, -0.3012732267379761, -0.34362855553627014, -0.8894683122634888, 0.21132266521453857, -0.08442625403404236, 0.09242546558380127, 0.22768791230938445, -0.05851542052534821, 0.8673458746147868,0.43868600643535277,-0.1887969970703125,-0.443572998046875,-0.8791656494140625
20230215-1542,2023-02-15 15:42:23Z,u02, 171,100,movements,el-ex, lt, nd,281714.348052125, -0.3331707192101963, 0.3494962697304171, 0.9954834312634018, -0.2632434070110321, -0.6365745067596436, 0.0684175044298172, -0.3072698712348938, -0.34242457151412964, -0.8878798484802246, 0.0264471173286438, -0.09364107251167297, 0.04145956039428711, 0.2286115702970963, -0.06161834223186251, 0.8670670511904964,0.438331710924475,-0.3482208251953125,-0.388916015625,-0.766082763671875
20230215-1542,2023-02-15 15:42:23Z,u02, 172,100,movements,el-ex, lt, nd,281714.358075125, -0.33905044467421275, 0.34453630733946766, 0.9937144156759887, -0.8777334690093994, -0.6923416256904602, -0.042405687272548676, -0.31304603815078735, -0.3377602696418762, -0.8876487016677856, -0.08485737442970276, 0.01256495714187622, 0.16389375925064087, 0.22776020242754058, -0.06558163242919549, 0.8674434640360464,0.43745424348407375,-0.4305419921875,-0.2592926025390625,-0.7209320068359375
20230215-1542,2023-02-15 15:42:23Z,u02, 173,100,movements,el-ex, lt, nd,281714.36809812504, -0.34480235626647093, 0.3320851117726093, 0.988565226337219, -1.8008133172988892, -0.7919688820838928, -0.04851092770695686, -0.31954333186149597, -0.3260149359703064, -0.8897225856781006, -0.12729501724243164, 0.1429094672203064, 0.15421843528747559, 0.223604495139078, -0.07169186969755614, 0.8687824670888065,0.43597972523064515,-0.449951171875,-0.139617919921875,-0.726318359375
20230215-1542,2023-02-15 15:42:23Z,u02, 174,100,movements,el-ex, lt, nd,281714.37812112505, -0.3501786068911119, 0.3112346120996309, 0.9796002207474276, -2.6090075969696045, -0.8114784359931946, -0.11709824204444885, -0.3265834152698517, -0.3062341809272766, -0.8941833972930908, -0.10722389817237854, 0.168874591588974, 0.16456913948059082, 0.21563646417408883, -0.08005765563491588, 0.8711367833032981,0.43383449576744226,-0.4054107666015625,-0.1285858154296875,-0.7646942138671875
20230215-1542,2023-02-15 15:42:23Z,u02, 175,100,movements,el-ex, lt, nd,281714.388144125, -0.35459239594813075, 0.28762090464427686, 0.9695703618036778, -2.393430233001709, -0.696538507938385, -0.043325409293174744, -0.3329453468322754, -0.28367167711257935, -0.8992651104927063, -0.04652547836303711, 0.17713481187820435, 0.0828283429145813, 0.2061566928625906, -0.08869527885713077, 0.8736944159942347,0.4316139443425019,-0.352508544921875,-0.083587646484375,-0.89752197265625
20230215-1542,2023-02-15 15:42:23Z,u02, 176,100,movements,el-ex, lt, nd,281714.398168125, -0.35974933892405586, 0.2672474404404059, 0.9612325269635748, -1.9914544820785522, -0.7791543006896973, -0.03639453276991844, -0.3395427167415619, -0.2640776038169861, -0.9027589559555054, 0.025761008262634277, 0.20996993780136108, -0.10809004306793213, 0.19820292270378012, -0.09662359394636337, 0.8756466782969372,0.42967698472266,-0.289093017578125,-0.0318603515625,-1.0885009765625
20230215-1542,2023-02-15 15:42:23Z,u02, 177,100,movements,el-ex, lt, nd,281714.408191125, -0.3658531826288894, 0.24984077392003382, 0.9540307272465683, -1.7518094778060913, -0.7884500622749329, -0.033742234110832214, -0.3466387689113617, -0.24724967777729034, -0.9048255085945129, 0.03752624988555908, 0.15221795439720154, -0.22495049238204956, 0.19170885766483692, -0.10409113588800317, 0.8771464660917274,0.4278165152409791,-0.37939453125,-0.2442474365234375,-1.159454345703125
20230215-1542,2023-02-15 15:42:23Z,u02, 178,100,movements,el-ex, lt, nd,281714.41821412503, -0.3722126955388196, 0.2358731743519831, 0.9477102865669816, -1.2674537897109985, -0.7717411518096924, -0.10382012277841568, -0.35360750555992126, -0.23369206488132477, -0.9057316184043884, -0.11918604373931885, -0.14931878447532654, -0.2721248269081116, 0.1867389399589952, -0.11073735071984019, 0.8783110994849095,0.4259524700119909,-0.55865478515625,-0.4154205322265625,-1.1881256103515625
20230215-1542,2023-02-15 15:42:23Z,u02, 179,100,movements,el-ex, lt, nd,281714.42823712504, -0.37871972971835005, 0.22673967033557252, 0.9422852724437731, -0.8836451172828674, -0.774532675743103, -0.20742300152778625, -0.3602677583694458, -0.22480183839797974, -0.9053570032119751, -0.2648695409297943, -0.11057107150554657, -0.2868732213973999, 0.18389023050026246, -0.11621483101783614, 0.8791702980619293,0.42395541343042864,-0.6810302734375,-0.2581634521484375,-1.143035888671875
20230215-1542,2023-02-15 15:42:23Z,u02, 180,100,movements,el-ex, lt, nd,281714.438260125, -0.3851964371032701, 0.22003071270625568, 0.9371130762981456, -0.7421596050262451, -0.7377184629440308, -0.22129859030246735, -0.36668235063552856, -0.21825960278511047, -0.9043819904327393, -0.34143227338790894, -0.05162256956100464, -0.13042330741882324, 0.18206668581137853, -0.12108144460837345, 0.8799205173443235,0.4218186760216777,-0.6700286865234375,-0.3578033447265625,-0.9340362548828125
20230215-1542,2023-02-15 15:42:23Z,u02, 181,100,movements,el-ex, lt, nd,281714.448284125, -0.3910656605822734, 0.21548134941178032, 0.9322220806189235, -0.4119177460670471, -0.6458825469017029, -0.3153297007083893, -0.37235864996910095, -0.21381767094135284, -0.9031229615211487, -0.21290740370750427, -0.22938908636569977, 0.0016337037086486816, 0.18104090660911845, -0.12515080045571955, 0.8806081000770903,0.419631782812495,-0.5159149169921875,-0.4471435546875,-0.9266510009765625
20230215-1542,2023-02-15 15:42:23Z,u02, 182,100,movements,el-ex, lt, nd,281714.458307125, -0.3963403180101945, 0.21532196029288517, 0.9284988029933287, 0.07611559331417084, -0.5592413544654846, -0.337878942489624, -0.37713027000427246, -0.21366196870803833, -0.9011777639389038, -0.10494065284729004, -0.17037120461463928, -0.05437344312667847, 0.18184065841800726, -0.12784797625282035, 0.8810542643175969,0.4175310917560001,-0.4478607177734375,-0.3072509765625,-0.955413818359375
20230215-1542,2023-02-15 15:42:23Z,u02, 183,100,movements,el-ex, lt, nd,281714.46833012503, -0.4007469619428735, 0.21813405486140003, 0.925499297687896, 0.1460392326116562, -0.44112297892570496, -0.421379029750824, -0.38086187839508057, -0.21640826761722565, -0.8989503383636475, -0.021268248558044434, -0.03980204463005066, -0.02850937843322754, 0.18377754277596461, -0.12942427126824377, 0.8813860018590276,0.415492523689665,-0.358154296875,-0.2477874755859375,-0.907073974609375
20230215-1542,2023-02-15 15:42:23Z,u02, 184,100,movements,el-ex, lt, nd,281714.47835312504, -0.40391228747756835, 0.22007826802724506, 0.9213943668375396, -0.11373162269592285, -0.3725641369819641, -0.4571194648742676, -0.3835393488407135, -0.21830600500106812, -0.8973517417907715, 0.044290691614151, -0.0576949417591095, -0.02911621332168579, 0.18500446711509339, -0.1307573695757039, 0.8820233283380127,0.413171770182458,-0.349212646484375,-0.301116943359375,-0.9716796875
20230215-1542,2023-02-15 15:42:24Z,u02, 185,100,movements,el-ex, lt, nd,281714.488376125, -0.4063360352695215, 0.22054425641168413, 0.9164323707420314, -0.14939530193805695, -0.3212575614452362, -0.46034467220306396, -0.385672926902771, -0.21876072883605957, -0.8963258862495422, 0.015830397605895996, -0.07594749331474304, -0.12462443113327026, 0.1853785793132251, -0.13218103438984558, 0.882884049717568,0.4107051098288872,-0.3902740478515625,-0.25592041015625,-1.047149658203125
20230215-1542,2023-02-15 15:42:24Z,u02, 186,100,movements,el-ex, lt, nd,281714.498399125, -0.4083969557521987, 0.22124714658148573, 0.911892132584431, -0.07666702568531036, -0.2846928834915161, -0.4027889668941498, -0.3874582052230835, -0.21944653987884521, -0.8953878283500671, -0.015587449073791504, 0.01894606649875641, -0.14770299196243286, 0.18580271494375178, -0.13335453117965448, 0.8836742196789036,0.40842855920185,-0.4059295654296875,-0.1442108154296875,-1.0267333984375
20230215-1542,2023-02-15 15:42:24Z,u02, 187,100,movements,el-ex, lt, nd,281714.508423125, -0.41018994983993895, 0.22230378904898662, 0.9083351995387567, -0.015639398247003555, -0.2304738610982895, -0.31873488426208496, -0.3889703154563904, -0.22047729790210724, -0.8944785594940186, -0.006308615207672119, 0.10037538409233093, -0.12512898445129395, 0.18638666241658294, -0.13424134071516466, 0.8842744634808061,0.40656860027973896,-0.37921142578125,-0.1403656005859375,-1.0228271484375
20230215-1542,2023-02-15 15:42:24Z,u02, 188,100,movements,el-ex, lt, nd,281714.51844612503, -0.4118103183185372, 0.22354552802149624, 0.9056956170790362, 0.031959544867277145, -0.21235796809196472, -0.24682766199111938, -0.39030930399894714, -0.22168831527233124, -0.8935955166816711, 0.014210700988769531, 0.04035288095474243, -0.14337652921676636, 0.1870746347241103, -0.13492707520404174, 0.8846954806869632,0.40510717248266054,-0.398895263671875,-0.21319580078125,-1.0457916259765625
20230215-1542,2023-02-15 15:42:24Z,u02, 189,100,movements,el-ex, lt, nd,281714.52846912504, -0.41335202443617725, 0.22513630301012755, 0.9040077421156081, 0.1401960402727127, -0.16579578816890717, -0.17322343587875366, -0.3915443420410156, -0.2232392281293869, -0.8926686644554138, -0.03162762522697449, -0.009503066539764404, -0.14059555530548096, 0.18796025292428722, -0.13541279329331327, 0.8849250841784524,0.40403220106223636,-0.429595947265625,-0.24603271484375,-0.9993133544921875
20230215-1542,2023-02-15 15:42:24Z,u02, 190,100,movements,el-ex, lt, nd,281714.538492125, -0.4146111775286451, 0.22812012007224808, 0.9036427146877934, 0.36909499764442444, -0.1147666946053505, -0.1441212147474289, -0.3923979699611664, -0.22614674270153046, -0.8915612697601318, -0.030804544687271118, -0.02374643087387085, -0.07911133766174316, 0.1894796402280741, -0.13533966763054062, 0.8848980757275564,0.403405720199351,-0.421844482421875,-0.243621826171875,-0.958709716796875
20230215-1542,2023-02-15 15:42:24Z,u02, 191,100,movements,el-ex, lt, nd,281714.548515125, -0.41586330767941704, 0.23290450268003574, 0.9040093986306996, 0.5110673904418945, -0.11465084552764893, -0.16964590549468994, -0.3930723965167999, -0.23080457746982574, -0.890069305896759, -0.050256431102752686, -0.0018919259309768677, -0.05533480644226074, 0.1918239008801424, -0.13479222005127067, 0.8847113110318188,0.4028903709717647,-0.470916748046875,-0.2325439453125,-0.926910400390625
20230215-1542,2023-02-15 15:42:24Z,u02, 192,100,movements,el-ex, lt, nd,281714.558538125, -0.4170189914463333, 0.23840969916957486, 0.904531565627945, 0.515881359577179, -0.08323673158884048, -0.1724904179573059, -0.3935801684856415, -0.2361576110124588, -0.8884392380714417, -0.07913708686828613, -0.030215054750442505, -0.007419586181640625, 0.19446815942802498, -0.1340243407010627, 0.8844905790560011,0.40236311705831246,-0.4597015380859375,-0.3151702880859375,-0.8580169677734375
20230215-1542,2023-02-15 15:42:24Z,u02, 193,100,movements,el-ex, lt, nd,281714.56856212503, -0.41804341081259705, 0.2434314346476869, 0.90499683996394, 0.41897061467170715, -0.0934733897447586, -0.1444629579782486, -0.39400365948677063, -0.24103429913520813, -0.886940598487854, -0.06768149137496948, -0.11422081291675568, 0.060463547706604004, 0.1968711435266861, -0.13330965725179061, 0.8842888925764785,0.4018749652597779,-0.478729248046875,-0.3814544677734375,-0.802978515625
20230215-1542,2023-02-15 15:42:24Z,u02, 194,100,movements,el-ex, lt, nd,281714.57858512504, -0.41879307919606734, 0.24701021029449183, 0.9052038300149948, 0.24957332015037537, -0.03604631870985031, -0.11061949282884598, -0.3943151533603668, -0.24450601637363434, -0.8858512043952942, -0.08658084273338318, -0.14561542868614197, 0.09411841630935669, 0.19857796542472292, -0.13282013249583166, 0.8841661434277815,0.4014670527729236,-0.4584197998046875,-0.3798980712890625,-0.7973175048828125
20230215-1542,2023-02-15 15:42:24Z,u02, 195,100,movements,el-ex, lt, nd,281714.588608125, -0.41915360435568044, 0.24982231274441075, 0.9058147689612343, 0.3706677258014679, -0.006589094176888466, 0.007069481536746025, -0.39435312151908875, -0.24723179638385773, -0.8850774765014648, -0.04297900199890137, -0.11356225609779358, 0.05989736318588257, 0.19990216120454543, -0.13228907768272052, 0.8839934384992323,0.4013657347708718,-0.4295196533203125,-0.3494110107421875,-0.859771728515625
20230215-1542,2023-02-15 15:42:24Z,u02, 196,100,movements,el-ex, lt, nd,281714.598631125, -0.41949617800996614, 0.2539265929250314, 0.9082201652092798, 0.5408902764320374, 0.04452043026685715, 0.06585130095481873, -0.3942396640777588, -0.25120657682418823, -0.8840081095695496, -0.02241683006286621, -0.07527047395706177, -0.00953131914138794, 0.20189597771780982, -0.1312781652599666, 0.8834467696700515,0.4019028280606992,-0.417510986328125,-0.245086669921875,-0.9020843505859375
20230215-1542,2023-02-15 15:42:24Z,u02, 197,100,movements,el-ex, lt, nd,281714.608654125, -0.4200297147223744, 0.25874177600364767, 0.9113443846570372, 0.5533615946769714, -0.007084442302584648, 0.10777539759874344, -0.3942134380340576, -0.2558644115924835, -0.8826829791069031, -0.06063580513000488, 0.1282857060432434, 0.0035020112991333008, 0.20427722222477435, -0.13011279843588136, 0.8827317661053214,0.4026489857326997,-0.4975128173828125,-0.0767974853515625,-0.8536529541015625
20230215-1542,2023-02-15 15:42:24Z,u02, 198,100,movements,el-ex, lt, nd,281714.618678125, -0.4219253151793386, 0.2629559039951746, 0.9149464066781333, 0.47343161702156067, -0.20565453171730042, 0.16662299633026123, -0.39544084668159485, -0.25993597507476807, -0.8809425830841064, -0.10928934812545776, 0.13600412011146545, 0.038810014724731445, 0.20670172677691828, -0.12962681226755862, 0.8818345504906573,0.40353328983089515,-0.4827117919921875,-0.2155914306640625,-0.840240478515625
20230215-1542,2023-02-15 15:42:24Z,u02, 199,100,movements,el-ex, lt, nd,281714.62870112504, -0.42600074050438497, 0.26584194591265353, 0.9178493339069955, 0.25089123845100403, -0.4413253664970398, 0.1102348268032074, -0.39871612191200256, -0.2627217173576355, -0.87863689661026, -0.07036954164505005, -0.011829614639282227, 0.04688030481338501, 0.20894974605350905, -0.1304667296421774, 0.8809498319486619,0.4040369400017537,-0.476776123046875,-0.2628936767578125,-0.8118133544921875
20230215-1542,2023-02-15 15:42:24Z,u02, 200,100,movements,el-ex, lt, nd,281714.638724125, -0.43185536959489157, 0.2665878975274248, 0.919452664069363, 0.020667077973484993, -0.6364477276802063, 0.12191438674926758, -0.40377122163772583, -0.26344141364097595, -0.87610924243927, -0.08325880765914917, 0.04875025153160095, 0.09081566333770752, 0.21055706941718705, -0.13270676577219925, 0.8802322955908334,0.40403689743287735,-0.4857025146484375,-0.1931304931640625,-0.763031005859375
20230215-1542,2023-02-15 15:42:24Z,u02, 201,100,movements,el-ex, lt, nd,281714.648747125, -0.43940627714787034, 0.26559728669749505, 0.9205878120749396, -0.10985878109931946, -0.8051906824111938, 0.15957415103912354, -0.4104858636856079, -0.26248565316200256, -0.8732712268829346, -0.0579741895198822, 0.04587191343307495, 0.10857701301574707, 0.21173524774654143, -0.1361343595682828, 0.8795059608465262,0.4038626510892468,-0.4432220458984375,-0.25103759765625,-0.792236328125
20230215-1542,2023-02-15 15:42:24Z,u02, 202,100,movements,el-ex, lt, nd,281714.658770125, -0.4483874122529541, 0.26343249583567296, 0.9217053741996797, -0.1833186149597168, -0.9227002859115601, 0.23597252368927002, -0.4185575246810913, -0.26039615273475647, -0.8700594305992126, -0.0035463273525238037, -0.014551937580108643, 0.045901715755462646, 0.2127020828435632, -0.14045673751538706, 0.8786790458232645,0.4036743552170064,-0.401824951171875,-0.300079345703125,-0.8419036865234375
20230215-1542,2023-02-15 15:42:24Z,u02, 203,100,movements,el-ex, lt, nd,281714.668793125, -0.45839171001995627, 0.2605775309887917, 0.923708180820863, -0.19493062794208527, -0.96738201379776, 0.3517633080482483, -0.4275679886341095, -0.2576386332511902, -0.8664917349815369, 0.050294429063797, -0.08136585354804993, 0.015783727169036865, 0.21364864900805458, -0.14528723301995644, 0.8775810969564053,0.4038531119805681,-0.3502349853515625,-0.371337890625,-0.8639678955078125
20230215-1542,2023-02-15 15:42:24Z,u02, 204,100,movements,el-ex, lt, nd,281714.67881712504, -0.4690357325750521, 0.25675867967081334, 0.9259640435695847, -0.2859521508216858, -1.0408498048782349, 0.3772878646850586, -0.4372081160545349, -0.25394684076309204, -0.8627630472183228, 0.08592027425765991, -0.09242767095565796, -0.006133437156677246, 0.21434171769713561, -0.1505858667253407, 0.8763584635930162,0.4041997168305028,-0.384002685546875,-0.2713623046875,-0.8722991943359375
20230215-1542,2023-02-15 15:42:24Z,u02, 205,100,movements,el-ex, lt, nd,281714.688840125, -0.4802884591181204, 0.2519984253112849, 0.9279607530053169, -0.40800750255584717, -1.1082783937454224, 0.4089403450489044, -0.4474421441555023, -0.249339759349823, -0.8588510751724243, 0.03278455138206482, 0.04780168831348419, -0.033254027366638184, 0.21474906888022097, -0.1563882600124171, 0.8751054943355303,0.4044946120195798,-0.4382171630859375,-0.1491546630859375,-0.905792236328125
20230215-1542,2023-02-15 15:42:24Z,u02, 206,100,movements,el-ex, lt, nd,281714.698863125, -0.49222268736773067, 0.24529418540731282, 0.929291137830792, -0.6863808035850525, -1.215070366859436, 0.4424157440662384, -0.458439439535141, -0.2428417205810547, -0.8549041748046875, -0.006343245506286621, 0.13780023157596588, -0.03564453125, 0.21442773718728317, -0.16299894373893004, 0.8738855827513013,0.40469250469095985,-0.4743804931640625,-0.078521728515625,-0.85479736328125
20230215-1542,2023-02-15 15:42:24Z,u02, 207,100,movements,el-ex, lt, nd,281714.708886125, -0.5049083161439917, 0.23542866830870338, 0.92930308328639, -1.0357502698898315, -1.3028305768966675, 0.5127290487289429, -0.47038331627845764, -0.23325985670089722, -0.8510754108428955, -0.0021356046199798584, 0.1631610095500946, 0.03694272041320801, 0.21281829091647095, -0.1707942040329595, 0.8727955796726148,0.40467964873019535,-0.46441650390625,-0.068511962890625,-0.7757415771484375
20230215-1542,2023-02-15 15:42:24Z,u02, 208,100,movements,el-ex, lt, nd,281714.718909125, -0.5179510841966483, 0.22272206787447904, 0.9284271711924733, -1.2489807605743408, -1.3299870491027832, 0.5756406784057617, -0.4828719198703766, -0.2208852767944336, -0.8473750352859497, 0.0283583402633667, 0.1401357650756836, 0.07656204700469971, 0.21000324039432622, -0.1794745990997077, 0.8717436753356438,0.40466094801898783,-0.44659423828125,-0.0895233154296875,-0.7988739013671875
20230215-1542,2023-02-15 15:42:24Z,u02, 209,100,movements,el-ex, lt, nd,281714.728932125, -0.5310586056639508, 0.2089533640059728, 0.927293481055471, -1.1985268592834473, -1.3337706327438354, 0.6032633781433105, -0.49543049931526184, -0.20743614435195923, -0.8435157537460327, 0.05355122685432434, 0.11780604720115662, 0.01281207799911499, 0.20672561050850477, -0.188432039057379, 0.8706139070783381,0.4047088812043297,-0.4370269775390625,-0.0900421142578125,-0.856903076171875
20230215-1542,2023-02-15 15:42:24Z,u02, 210,100,movements,el-ex, lt, nd,281714.73895612505, -0.544107185928717, 0.19767463912065408, 0.927559649784036, -0.6855104565620422, -1.241060733795166, 0.597841739654541, -0.5075735449790955, -0.1963897943496704, -0.8389279842376709, 0.07779449224472046, 0.1022583395242691, -0.0516512393951416, 0.20462317099869815, -0.19663513630292082, 0.8691309765429873,0.4050621079850577,-0.42034912109375,-0.0979461669921875,-0.914947509765625
20230215-1542,2023-02-15 15:42:24Z,u02, 211,100,movements,el-ex, lt, nd,281714.748979125, -0.5565101011263044, 0.19102307597369575, 0.9304115474093081, -0.17024549841880798, -1.1008065938949585, 0.5877467393875122, -0.5186179876327515, -0.18986345827579498, -0.8336589932441711, 0.10666120052337646, 0.10406331717967987, -0.06384778022766113, 0.20461425872810055, -0.20323266009303453, 0.8671876863617576,0.4059742914060319,-0.406494140625,-0.0692596435546875,-0.854034423828125
20230215-1542,2023-02-15 15:42:24Z,u02, 212,100,movements,el-ex, lt, nd,281714.759002125, -0.5677147852572493, 0.1875966448030678, 0.9354559306702145, 0.07961893081665039, -0.9512246251106262, 0.6144944429397583, -0.528272807598114, -0.1864982396364212, -0.8283394575119019, 0.12101572751998901, 0.1027427613735199, 0.008087992668151855, 0.20596864110875518, -0.20834392822151004, 0.8649350480987739,0.40750106716929835,-0.4191741943359375,-0.129241943359375,-0.8213958740234375
20230215-1542,2023-02-15 15:42:24Z,u02, 213,100,movements,el-ex, lt, nd,281714.769025125, -0.578023521380904, 0.18510370896217285, 0.9415009644366714, 0.11670354008674622, -0.8867976665496826, 0.6594288349151611, -0.5370360612869263, -0.18404847383499146, -0.8232365250587463, 0.07853996753692627, 0.02627260982990265, -0.03702348470687866, 0.20766336039141128, -0.21273848183166244, 0.862555853008991,0.40940882106844656,-0.51275634765625,-0.1569671630859375,-0.9075927734375
20230215-1542,2023-02-15 15:42:24Z,u02, 214,100,movements,el-ex, lt, nd,281714.779048125, -0.5877998211456401, 0.18177020026725346, 0.9477614223232542, -0.017555732280015945, -0.829840898513794, 0.7316242456436157, -0.5453956723213196, -0.1807708889245987, -0.8184530735015869, -0.00642317533493042, 0.04916384816169739, -0.11689543724060059, 0.20894683283080406, -0.21705916018420635, 0.8601337849579667,0.4115780412675586,-0.565704345703125,-0.099029541015625,-0.9339447021484375
20230215-1542,2023-02-15 15:42:24Z,u02, 215,100,movements,el-ex, lt, nd,281714.78907212504, -0.596749266599295, 0.17654463235596685, 0.9534859916662373, -0.221647709608078, -0.7468783855438232, 0.7855580449104309, -0.5532217621803284, -0.17562897503376007, -0.8143096566200256, -0.00955289602279663, 0.10243259370326996, -0.09035348892211914, 0.20923942848209434, -0.2215040522913508, 0.8578224329821642,0.4138786166093086,-0.5560150146484375,-0.0597381591796875,-0.8638763427734375
20230215-1542,2023-02-15 15:42:24Z,u02, 216,100,movements,el-ex, lt, nd,281714.799095125, -0.6048796307602797, 0.16946259386803478, 0.9584775834757958, -0.3897744119167328, -0.6977617144584656, 0.8269254565238953, -0.5605173110961914, -0.16865266859531403, -0.8107876777648926, 0.0012826919555664062, 0.10409276187419891, -0.028567790985107422, 0.20853476673032822, -0.22609599747182896, 0.8556561232019455,0.4162290284799088,-0.5770416259765625,-0.0736846923828125,-0.8415374755859375
20230215-1542,2023-02-15 15:42:24Z,u02, 217,100,movements,el-ex, lt, nd,281714.809118125, -0.6122702874502238, 0.1611076658728151, 0.9629739073136878, -0.4543229937553406, -0.6250664591789246, 0.8483216762542725, -0.5672842264175415, -0.16041162610054016, -0.8077479600906372, -0.023383498191833496, 0.07487086951732635, -0.04135787487030029, 0.20711613336733758, -0.2307139639878072, 0.8535889715436367,0.4186406071349405,-0.5908203125,-0.104705810546875,-0.8473358154296875
20230215-1542,2023-02-15 15:42:24Z,u02, 218,100,movements,el-ex, lt, nd,281714.819141125, -0.61889246030185, 0.15244303723480493, 0.9674331265563213, -0.455972820520401, -0.5532181262969971, 0.8728267550468445, -0.5734056234359741, -0.1518532931804657, -0.8050755262374878, -0.010563492774963379, 0.029462561011314392, -0.03655350208282471, 0.2054275067431769, -0.2350782509658042, 0.8515606943126223,0.4211676134591215,-0.5786285400390625,-0.1259765625,-0.83349609375
20230215-1542,2023-02-15 15:42:24Z,u02, 219,100,movements,el-ex, lt, nd,281714.829164125, -0.6249353063113783, 0.1434592949748721, 0.9719443824794461, -0.5027247071266174, -0.5260187387466431, 0.897045910358429, -0.5790348649024963, -0.14296771585941315, -0.802669882774353, 0.007318556308746338, 0.01650288701057434, -0.018329262733459473, 0.2035131107152156, -0.23926445412987885, 0.8495320353970576,0.42382829700557145,-0.563323974609375,-0.1410369873046875,-0.8208770751953125
20230215-1542,2023-02-15 15:42:24Z,u02, 220,100,movements,el-ex, lt, nd,281714.83918712504, -0.6307587977295573, 0.1333753255904729, 0.9761843859731557, -0.6481698155403137, -0.5152955055236816, 0.9704093337059021, -0.5845199227333069, -0.13298024237155914, -0.800407886505127, 0.029084742069244385, -0.028869718313217163, -0.027549266815185547, 0.20108564079188662, -0.243640372778117, 0.847493643179326,0.4265659262277608,-0.5408172607421875,-0.18048095703125,-0.8281402587890625
20230215-1542,2023-02-15 15:42:24Z,u02, 221,100,movements,el-ex, lt, nd,281714.849211125, -0.63616310006701, 0.12173516276482137, 0.9800897040536463, -0.7493691444396973, -0.4592556357383728, 1.0176063776016235, -0.5897167325019836, -0.12143471091985703, -0.7984283566474915, 0.07155877351760864, -0.05959555506706238, -0.021029651165008545, 0.1979043538740744, -0.24823312725362687, 0.845454681838556,0.4294423082226274,-0.499786376953125,-0.1462860107421875,-0.8128509521484375
20230215-1542,2023-02-15 15:42:24Z,u02, 222,100,movements,el-ex, lt, nd,281714.859234125, -0.6409701481031117, 0.10960791239567076, 0.9838947598682514, -0.7272302508354187, -0.40219634771347046, 1.0291894674301147, -0.5943849086761475, -0.1093885749578476, -0.7967061996459961, 0.09359145164489746, 0.02831864356994629, -0.024155616760253906, 0.1943999538345571, -0.25269659927107896, 0.8434303392047293,0.43240998116885354,-0.51422119140625,-0.01190185546875,-0.8299407958984375
20230215-1542,2023-02-15 15:42:24Z,u02, 223,100,movements,el-ex, lt, nd,281714.869257125, -0.6450412680957068, 0.09780618101207335, 0.9880108563180705, -0.6759680509567261, -0.32922786474227905, 1.035253882408142, -0.5983580350875854, -0.09765031933784485, -0.7952560186386108, 0.07868939638137817, 0.12442952394485474, -0.02996981143951416, 0.19092803767039632, -0.2567459424272207, 0.841393071837664,0.43552925314184215,-0.5208282470703125,0.0246124267578125,-0.8245086669921875
20230215-1542,2023-02-15 15:42:24Z,u02, 224,100,movements,el-ex, lt, nd,281714.879280125, -0.6487655796664096, 0.08625824613505645, 0.9923825136539615, -0.6480938196182251, -0.32718440890312195, 1.0541876554489136, -0.601956844329834, -0.08615131676197052, -0.7938676476478577, 0.06200939416885376, 0.08906576782464981, -0.04502999782562256, 0.18753549515903695, -0.2605697704811309, 0.8393063931072711,0.4387465224699197,-0.5685577392578125,-0.032989501953125,-0.84423828125
20230215-1542,2023-02-15 15:42:24Z,u02, 225,100,movements,el-ex, lt, nd,281714.88930312503, -0.6524749052586374, 0.07453612825445093, 0.9969193602757142, -0.6760249137878418, -0.35104554891586304, 1.0759402513504028, -0.6054689884185791, -0.07446713000535965, -0.7923774123191833, 0.019485771656036377, 0.0041088685393333435, -0.03593069314956665, 0.18410666729239014, -0.2644163942113436, 0.8371238815438246,0.44205474677734674,-0.602142333984375,-0.0841217041015625,-0.798248291015625
20230215-1542,2023-02-15 15:42:24Z,u02, 226,100,movements,el-ex, lt, nd,281714.89932612504, -0.6566229313149818, 0.06245079569059301, 1.0012017132875553, -0.730023205280304, -0.41704267263412476, 1.0688753128051758, -0.6092554926872253, -0.06241020932793617, -0.7905142307281494, -0.026547670364379883, -0.008360043168067932, 0.012956857681274414, 0.18060947761393492, -0.26855745747347454, 0.8348632550621102,0.4452645357037313,-0.6651611328125,-0.052978515625,-0.762969970703125
20230215-1542,2023-02-15 15:42:24Z,u02, 227,100,movements,el-ex, lt, nd,281714.909350125, -0.6612919968689733, 0.050216267512911895, 1.0050377786200921, -0.7380837202072144, -0.4707897901535034, 1.037277102470398, -0.6133628487586975, -0.05019516497850418, -0.788204550743103, -0.05394977331161499, 0.0045409053564071655, 0.04365193843841553, 0.17712533894461882, -0.27299143817784177, 0.8325658664145786,0.4482592180607877,-0.6576385498046875,-0.0557098388671875,-0.731597900390625
20230215-1542,2023-02-15 15:42:24Z,u02, 228,100,movements,el-ex, lt, nd,281714.919373125, -0.6664423373760856, 0.0380798827128126, 1.0085305446762978, -0.7365407347679138, -0.523121178150177, 1.0036472082138062, -0.6177453398704529, -0.0380706787109375, -0.785456120967865, -0.03308779001235962, -0.03958126902580261, 0.05037921667098999, 0.1737610759159897, -0.27763110418702225, 0.8302288336330296,0.4510521817438722,-0.6458892822265625,-0.09503173828125,-0.7479400634765625
20230215-1542,2023-02-15 15:42:24Z,u02, 229,100,movements,el-ex, lt, nd,281714.929396125, -0.6718745814197634, 0.026334976042330982, 1.011922119627194, -0.6825517416000366, -0.5273969173431396, 0.9842828512191772, -0.6222383975982666, -0.026331931352615356, -0.7823848128318787, -0.014816045761108398, -0.07910627126693726, 0.022954881191253662, 0.17062609821832533, -0.2823018374197767, 0.8278464436167167,0.4537208957090185,-0.6206207275390625,-0.1060791015625,-0.76788330078125
20230215-1542,2023-02-15 15:42:24Z,u02, 230,100,movements,el-ex, lt, nd,281714.93941912503, -0.6771183097699293, 0.01548538188393046, 1.0157296680807453, -0.5176732540130615, -0.49772340059280396, 0.9633980989456177, -0.6264745593070984, -0.01548476330935955, -0.7792879939079285, 0.028162240982055664, -0.0740385353565216, 0.005179166793823242, 0.16789474690207937, -0.28664846529032284, 0.8254095924005379,0.4564460269277512,-0.580322265625,-0.0665283203125,-0.7773590087890625
20230215-1542,2023-02-15 15:42:24Z,u02, 231,100,movements,el-ex, lt, nd,281714.94944212504, -0.6819726540364196, 0.005913083556135741, 1.0203173998276323, -0.41776955127716064, -0.45932409167289734, 0.9506396651268005, -0.6303146481513977, -0.005913048982620239, -0.7763172388076782, 0.059101879596710205, -0.03853578865528107, -0.006885886192321777, 0.16573178400605193, -0.29047262775322313, 0.8229027266277646,0.4593362666576227,-0.566436767578125,-0.0147552490234375,-0.77313232421875
20230215-1542,2023-02-15 15:42:24Z,u02, 232,100,movements,el-ex, lt, nd,281714.959465125, -0.6864927237063656, -0.0034928669846580164, 1.024842904362837, -0.4819679856300354, -0.44818806648254395, 0.9412195086479187, -0.6338244676589966, 0.0034928598906844854, -0.773469090461731, 0.06946289539337158, 0.00952291488647461, 0.015412449836730957, 0.16357116686229464, -0.29412570996139314, 0.8204298789904924,0.462200678050977,-0.5716400146484375,0.0233917236328125,-0.74151611328125
20230215-1542,2023-02-15 15:42:24Z,u02, 233,100,movements,el-ex, lt, nd,281714.969489125, -0.6911230296313129, -0.013680939665775731, 1.0285550940913504, -0.6325258016586304, -0.4802096486091614, 0.9132189154624939, -0.6373432874679565, 0.013680513016879559, -0.7704585790634155, 0.05049026012420654, 0.0006017386913299561, 0.03611409664154053, 0.16101344736222808, -0.2980694316176346, 0.8180213686261916,0.4648336338118373,-0.60284423828125,0.018890380859375,-0.7320709228515625
20230215-1542,2023-02-15 15:42:24Z,u02, 234,100,movements,el-ex, lt, nd,281714.979512125, -0.6960559390131729, -0.024790244255718578, 1.030807714761246, -0.7647027373313904, -0.5093161463737488, 0.8503395318984985, -0.6409990787506104, 0.02478770539164543, -0.7671412825584412, 0.026619255542755127, 0.02870963327586651, 0.04675859212875366, 0.15794526340706821, -0.3024610017525513, 0.8157827055996345,0.4669787710948439,-0.617340087890625,0.090484619140625,-0.7061309814453125
20230215-1542,2023-02-15 15:42:24Z,u02, 235,100,movements,el-ex, lt, nd,281714.98953512503, -0.7013317336167849, -0.03566328049709137, 1.03233250116477, -0.6855633854866028, -0.5526476502418518, 0.7843424677848816, -0.6448253989219666, 0.03565572202205658, -0.7634977698326111, 0.029194295406341553, 0.050129201263189316, 0.06127309799194336, 0.1549548380642239, -0.3069855217842178, 0.8136372952620907,0.4687676964788553,-0.6173858642578125,0.04248046875,-0.6988677978515625
20230215-1542,2023-02-15 15:42:24Z,u02, 236,100,movements,el-ex, lt, nd,281714.99955812504, -0.70706246147345, -0.04516413866150221, 1.0340355412135136, -0.5355381965637207, -0.6102755665779114, 0.6999450325965881, -0.6489408612251282, 0.045148786157369614, -0.759498119354248, 0.022384464740753174, -0.049009233713150024, 0.07360029220581055, 0.15267091082370704, -0.31135594869093747, 0.8114643207274286,0.47039855999933794,-0.6431732177734375,-0.038604736328125,-0.676177978515625
20230215-1542,2023-02-15 15:42:24Z,u02, 237,100,movements,el-ex, lt, nd,281715.009581125, -0.7136580002408238, -0.05300748705572585, 1.0358709231702397, -0.4285127818584442, -0.7267696857452393, 0.6040189266204834, -0.6536840796470642, 0.05298266559839249, -0.7549105882644653, -0.01811462640762329, -0.1254771500825882, 0.06522858142852783, 0.15130111573296068, -0.3156781331512628, 0.8092451388190975,0.47178125552873,-0.705535888671875,-0.111297607421875,-0.7180328369140625
20230215-1542,2023-02-15 15:42:24Z,u02, 238,100,movements,el-ex, lt, nd,281715.029628125, -0.730832156681295, -0.06576975943012763, 1.0388394445566704, -0.356268048286438, -0.9853857755661011, 0.48995161056518555, -0.6660463809967041, 0.06572235375642776, -0.7430093288421631, -0.1020047664642334, -0.19427764415740967, 0.029279470443725586, 0.15062027581701837, -0.3252827586304751, 0.804520548877767,0.473551946993734,-0.7562713623046875,-0.146514892578125,-0.7308502197265625
20230215-1542,2023-02-15 15:42:24Z,u02, 239,100,movements,el-ex, lt, nd,281715.03965112503, -0.7411441085514564, -0.07155087364672451, 1.0400851860931022, -0.3318588435649872, -1.0876847505569458, 0.4731561243534088, -0.6734049320220947, 0.0714898407459259, -0.7358090877532959, -0.08495694398880005, -0.13241814076900482, 0.0451352596282959, 0.1509104543382065, -0.3306380115687787, 0.801937835734588,0.47413097326157944,-0.7687225341796875,-0.09515380859375,-0.6939697265625
20230215-1542,2023-02-15 15:42:24Z,u02, 240,100,movements,el-ex, lt, nd,281715.019605125, -0.7215446990414637, -0.05969174784636022, 1.0374973788446369, -0.37606287002563477, -0.8689313530921936, 0.5260649919509888, -0.6593687534332275, 0.059656307101249695, -0.7494490742683411, -0.07636427879333496, -0.1998692899942398, 0.013975441455841064, 0.15068860667053424, -0.3202630072113121, 0.8069493659410832,0.47281835642055237,-0.7455291748046875,-0.029541015625,-0.705780029296875
20230215-1542,2023-02-15 15:42:24Z,u02, 241,100,movements,el-ex, lt, nd,281715.04967412504, -0.7522874335985915, -0.0770694997420637, 1.0413416906283104, -0.31750011444091797, -1.1388517618179321, 0.4564318060874939, -0.6812824010848999, 0.07699322700500488, -0.727960467338562, -0.05966919660568237, -0.07734414935112, 0.013223528861999512, 0.1515167287100687, -0.3362475796567675, 0.7991993105942936,0.4746165874696019,-0.7295074462890625,0.0252227783203125,-0.712127685546875
20230215-1542,2023-02-15 15:42:24Z,u02, 242,100,movements,el-ex, lt, nd,281715.059697125, -0.7636130695853648, -0.08241938411323486, 1.0425476249644783, -0.2922653257846832, -1.1373313665390015, 0.45380085706710815, -0.6891883611679077, 0.08232610672712326, -0.7198901176452637, -0.01253277063369751, -0.03436770290136337, 0.008586466312408447, 0.15223672953799827, -0.34187558278115215, 0.7964146899929132,0.47504597552777517,-0.675048828125,0.0604095458984375,-0.720672607421875
20230215-1542,2023-02-15 15:42:24Z,u02, 243,100,movements,el-ex, lt, nd,281715.069720125, -0.7747778335730258, -0.08759880369275741, 1.0438384719405354, -0.2826422154903412, -1.1051995754241943, 0.451045960187912, -0.6968750357627869, 0.08748681098222733, -0.711836576461792, 0.034246861934661865, -0.02469685673713684, -0.024232149124145508, 0.15301226112327293, -0.3473743727425154, 0.7936121111381143,0.47549791729769847,-0.6582183837890625,0.075103759765625,-0.7474822998046875
20230215-1542,2023-02-15 15:42:24Z,u02, 244,100,movements,el-ex, lt, nd,281715.079744125, -0.7853427451613247, -0.09274981535036882, 1.0449989418485637, -0.2902686893939972, -1.016088843345642, 0.436434268951416, -0.7040284872055054, 0.09261689335107803, -0.7041065692901611, 0.05301225185394287, 0.010135814547538757, -0.04230761528015137, 0.15364381456410411, -0.3526192080396456, 0.7909061802768874,0.47594199266514425,-0.639617919921875,0.133148193359375,-0.7390289306640625
20230215-1542,2023-02-15 15:42:24Z,u02, 245,100,movements,el-ex, lt, nd,281715.089767125, -0.7950446120852191, -0.09782797251710001, 1.0460618719337385, -0.2763076722621918, -0.9374355673789978, 0.4384331703186035, -0.7104815244674683, 0.0976720079779625, -0.6969047784805298, 0.07960689067840576, 0.0463709831237793, -0.037912726402282715, 0.15409098718870717, -0.357496252615876, 0.788346669207311,0.4764053286980545,-0.6336517333984375,0.130950927734375,-0.741241455078125
20230215-1542,2023-02-15 15:42:24Z,u02, 246,100,movements,el-ex, lt, nd,281715.09979012504, -0.8038500774525121, -0.10281733876750367, 1.0472202632157532, -0.253202348947525, -0.8414163589477539, 0.4389103949069977, -0.7162306308746338, 0.10263627767562866, -0.6902750134468079, 0.07832175493240356, 0.0011997967958450317, -0.061662912368774414, 0.15438575350956235, -0.361977270416024, 0.7859024310499223,0.47696442120105226,-0.6390533447265625,0.0861968994140625,-0.762176513671875
20230215-1542,2023-02-15 15:42:24Z,u02, 247,100,movements,el-ex, lt, nd,281715.109813125, -0.811725433533832, -0.10753650198040607, 1.048583830683694, -0.20561407506465912, -0.7651234269142151, 0.43077975511550903, -0.7212850451469421, 0.107329361140728, -0.684272050857544, 0.07536524534225464, -0.024489358067512512, -0.08367228507995605, 0.15461297670153348, -0.3660038346051546, 0.7835815109617911,0.4776358443020247,-0.662750244140625,0.086822509765625,-0.7628021240234375
20230215-1542,2023-02-15 15:42:24Z,u02, 248,100,movements,el-ex, lt, nd,281715.119836125, -0.8189857145092954, -0.11203419575141566, 1.0500582723162972, -0.19578754901885986, -0.7096388936042786, 0.43044981360435486, -0.7258740663528442, 0.11179997026920319, -0.6786807775497437, 0.04492008686065674, -0.018934957683086395, -0.07142597436904907, 0.15481072985195238, -0.3697205169131387, 0.7813497026485442,0.47836486329220473,-0.695159912109375,0.100677490234375,-0.735107421875
