SessionID,LoggingTime,UID,RecNo,Hertz,Activity,MoveType,Wrist,Side,TimeStamp,DMRoll,DMPitch,DMYaw,DMRotX,DMRotY,DMRotZ,DMGrvX,DMGrvY,DMGrvZ,DMUAccelX,DMUAccelY,DMUAccelZ,DMQuatX,DMQuatY,DMQuatW,DMQuatZ,AccelroX,AceelroY,AceelroZ
20230215-1532,2023-02-15 15:32:19Z,u02, 1,100,movements,el-ex, lt, nd,281209.4690085, -0.8055556701835048, -0.17074950589213678, -0.07289648529377736, 0.007733016740530729, 0.19069547951221466, -0.06049515679478645, -0.7107274532318115, 0.16992099583148956, -0.6826369166374207, 0.00746530294418335, -0.03144751489162445, 0.056492507457733154, -0.09262685417459844, -0.3874297425219193, 0.9172340169713598,4.838005694894023e-18,-0.7221221923828125,0.15130615234375,-0.6067962646484375
20230215-1532,2023-02-15 15:32:19Z,u02, 2,100,movements,el-ex, lt, nd,281209.4790315, -0.8037356421913842, -0.16999511908227313, -0.07303192859509587, 0.07782170921564102, 0.18171876668930054, -0.06576251238584518, -0.7095760107040405, 0.16917753219604492, -0.6840181350708008, 0.021709918975830078, -0.04014924168586731, 0.03837299346923828, -0.09230779052343857, -0.38661375497905426, 0.9176104798762346,-0.00029441969834528576,-0.7032623291015625,0.1384735107421875,-0.6261444091796875
20230215-1532,2023-02-15 15:32:19Z,u02, 3,100,movements,el-ex, lt, nd,281209.4890535, -0.8018921886948898, -0.1688152827928876, -0.0726787109290511, 0.13143061101436615, 0.17109674215316772, -0.05223711580038071, -0.7084567546844482, 0.16801458597183228, -0.6854633688926697, 0.011496424674987793, -0.04339607059955597, 0.0459369421005249, -0.09169923457782658, -0.3858232484231168, 0.9180039897104302,-0.0004483076301359365,-0.6878662109375,0.1290283203125,-0.6456451416015625
20230215-1532,2023-02-15 15:32:19Z,u02, 4,100,movements,el-ex, lt, nd,281209.4990765, -0.8001093290789812, -0.16751548213833692, -0.0718466253607755, 0.164150208234787, 0.15958337485790253, -0.02295939065515995, -0.7073897123336792, 0.16673313081264496, -0.6868768930435181, 0.016197144985198975, -0.030166983604431152, 0.06567633152008057, -0.09094328380281819, -0.3850855217787107, 0.91838897608353,-0.0004018485597470328,-0.69696044921875,0.1246185302734375,-0.6395263671875
20230215-1532,2023-02-15 15:32:19Z,u02, 5,100,movements,el-ex, lt, nd,281209.5090995, -0.798421288819439, -0.1664030035596323, -0.0707625594989229, 0.14455147087574005, 0.13804958760738373, 0.014093169011175632, -0.7063615918159485, 0.1656361222267151, -0.6881990432739258, 0.020326554775238037, -0.021242216229438782, 0.08239459991455078, -0.09022483179679024, -0.3843955682542687, 0.9187488689046039,-0.0001974619269129542,-0.691192626953125,0.136566162109375,-0.6212005615234375
20230215-1532,2023-02-15 15:32:19Z,u02, 6,100,movements,el-ex, lt, nd,281209.5191215, -0.7969677405102223, -0.16573496555796452, -0.06955217224128583, 0.11460022628307343, 0.11218256503343582, 0.05011002719402313, -0.7054395079612732, 0.1649772673845291, -0.6893022060394287, 0.027735769748687744, -0.022414416074752808, 0.08200240135192871, -0.08968619209246949, -0.3838036941661481, 0.919048978272691,0.00016318715281585044,-0.68603515625,0.1443939208984375,-0.605804443359375
20230215-1532,2023-02-15 15:32:19Z,u02, 7,100,movements,el-ex, lt, nd,281209.52914450003, -0.79578843972878, -0.16552935902950897, -0.06835491885680729, 0.08617711067199707, 0.08422815799713135, 0.08323948830366135, -0.704650342464447, 0.16477447748184204, -0.690157413482666, 0.04141193628311157, -0.024042680859565735, 0.07878339290618896, -0.08936254633022991, -0.38332185024473303, 0.9192813767699671,0.0006206640338195633,-0.677703857421875,0.1425628662109375,-0.6072998046875
20230215-1532,2023-02-15 15:32:19Z,u02, 8,100,movements,el-ex, lt, nd,281209.53916650004, -0.7949266942528753, -0.16567777264128264, -0.06718138739337176, 0.06004200875759125, 0.04725176841020584, 0.09654514491558075, -0.7040378451347351, 0.1649208664894104, -0.6907472014427185, 0.055325865745544434, -0.027622297406196594, 0.0632142424583435, -0.08920617354443079, -0.3829734313123671, 0.9194412364204836,0.0011504604687011277,-0.663238525390625,0.1407318115234375,-0.6113739013671875
20230215-1532,2023-02-15 15:32:19Z,u02, 9,100,movements,el-ex, lt, nd,281209.54918950005, -0.7944462148669905, -0.1660417423763294, -0.06614475578217849, 0.03466368094086647, 0.011451158672571182, 0.09781840443611145, -0.7036629915237427, 0.1652798354625702, -0.6910432577133179, 0.06074929237365723, -0.029171481728553772, 0.045932233333587646, -0.08917500776037171, -0.38278737542305785, 0.9195208682250265,0.0016762234643113063,-0.648712158203125,0.137298583984375,-0.627532958984375
20230215-1532,2023-02-15 15:32:19Z,u02, 10,100,movements,el-ex, lt, nd,281209.5592125, -0.7943560094642428, -0.16655770135665532, -0.0652719752678827, 0.014285972341895103, -0.025734825059771538, 0.0934809073805809, -0.7035397291183472, 0.1657886803150177, -0.691046953201294, 0.060320913791656494, -0.037111327052116394, 0.04413527250289917, -0.08924472283402754, -0.382768748971589, 0.9195208682298291,0.0021735137203933875,-0.642913818359375,0.1361083984375,-0.645111083984375
20230215-1532,2023-02-15 15:32:19Z,u02, 11,100,movements,el-ex, lt, nd,281209.5692345, -0.7947592805177548, -0.16710758432126943, -0.0647388783880192, -0.0037486879155039787, -0.07528720051050186, 0.06411343067884445, -0.7037532329559326, 0.16633091866970062, -0.6906992197036743, 0.05841332674026489, -0.04180397093296051, 0.02949005365371704, -0.08939441988938888, -0.3829608845327773, 0.919425381599691,0.0025432457381368576,-0.643218994140625,0.1286773681640625,-0.64691162109375
20230215-1532,2023-02-15 15:32:19Z,u02, 12,100,movements,el-ex, lt, nd,281209.5792575, -0.7956703378812262, -0.1674629363501102, -0.06432830181728534, 0.002112662885338068, -0.1210368424654007, 0.03667967766523361, -0.7043399214744568, 0.16668131947517395, -0.6900163292884827, 0.04184919595718384, -0.06125837564468384, 0.007750093936920166, -0.08947750876087714, -0.3833870279182239, 0.9192387594743311,0.002841681524609082,-0.6453399658203125,0.1245269775390625,-0.6612091064453125
20230215-1532,2023-02-15 15:32:19Z,u02, 13,100,movements,el-ex, lt, nd,281209.5892795, -0.7970503872713169, -0.16763883495854062, -0.06398504836756813, 0.020191550254821777, -0.16418378055095673, 0.03798923268914223, -0.705270528793335, 0.16685475409030914, -0.6890231370925903, 0.012521624565124512, -0.08567802608013153, -0.012316584587097168, -0.08949025670739182, -0.38403114547931283, 0.9189677967829923,0.0030953521300921124,-0.6624908447265625,0.1054229736328125,-0.6822662353515625
20230215-1532,2023-02-15 15:32:19Z,u02, 14,100,movements,el-ex, lt, nd,281209.5993025, -0.7988840658640968, -0.1678240278461478, -0.06385496932735311, -0.024691615253686905, -0.20932649075984955, 0.012483341619372368, -0.7065106630325317, 0.16703733801841736, -0.687707245349884, 0.013349711894989014, -0.08541809022426605, 0.0011074542999267578, -0.089547208948895, -0.3848735974855538, 0.9186092152698138,0.003273233805506828,-0.6927490234375,0.0811767578125,-0.7013397216796875
20230215-1532,2023-02-15 15:32:19Z,u02, 15,100,movements,el-ex, lt, nd,281209.60932550003, -0.801266396072769, -0.1682324534273309, -0.06417571132309981, -0.09030844271183014, -0.2525903284549713, -0.0055161649361252785, -0.7080979347229004, 0.1674400120973587, -0.6859745979309082, 0.03420889377593994, -0.0623527467250824, 0.009903371334075928, -0.0897922138380082, -0.3859404907687736, 0.9181373849384831,0.00331248207281892,-0.6931610107421875,0.0816192626953125,-0.6865997314453125
20230215-1532,2023-02-15 15:32:19Z,u02, 16,100,movements,el-ex, lt, nd,281209.61934750003, -0.8042397087541013, -0.16927354843991696, -0.06536694337405866, -0.21974685788154602, -0.30301275849342346, -0.0067705679684877396, -0.710008442401886, 0.16846632957458496, -0.6837449073791504, 0.03744691610336304, -0.053277745842933655, 0.01939237117767334, -0.09049436398043147, -0.3872187123053945, 0.9175307885120159,0.00310366537424076,-0.67388916015625,0.1050872802734375,-0.6760711669921875
20230215-1532,2023-02-15 15:32:19Z,u02, 17,100,movements,el-ex, lt, nd,281209.62937050004, -0.7867642188292404, -0.15635172439323902, -0.0639351502265722, -0.298951119184494, -0.334271103143692, -0.018902864307165146, -0.6994349360466003, 0.1557154804468155, -0.6975266337394714, 0.022768795490264893, -0.05798293650150299, 0.01632845401763916, -0.0843083781679583, -0.3796429623939175, 0.9212833774341155,0.0004894893368357884,-0.6725616455078125,0.1151885986328125,-0.6643524169921875
20230215-1532,2023-02-15 15:32:19Z,u02, 18,100,movements,el-ex, lt, nd,281209.63939250004, -0.7871600980679746, -0.15121130395529542, -0.06582146969309118, -0.3471623361110687, -0.3243694603443146, 0.0037300903350114822, -0.7002687454223633, 0.1506357192993164, -0.6978054046630859, -0.023760676383972168, -0.058365851640701294, -0.0017642974853515625, -0.0823035760714011, -0.3798992027684237, 0.9213580620350645,-0.0013508870533396383,-0.676666259765625,0.0977325439453125,-0.6811981201171875
20230215-1532,2023-02-15 15:32:19Z,u02, 19,100,movements,el-ex, lt, nd,281209.6494155, -0.7845454994698209, -0.14763617892066566, -0.06731130120403023, -0.35653185844421387, -0.30340850353240967, 0.028467394411563873, -0.6988179087638855, 0.14710043370723724, -0.7000106573104858, -0.04773348569869995, -0.06096459925174713, -0.01800692081451416, -0.08093927798444055, -0.3787393560576613, 0.9219529759362878,-0.002830412461373312,-0.724029541015625,0.0922698974609375,-0.6995697021484375
20230215-1532,2023-02-15 15:32:19Z,u02, 20,100,movements,el-ex, lt, nd,281209.6594385, -0.7825616485143181, -0.13903711839208255, -0.06895924829415676, -0.3589772582054138, -0.2708588242530823, 0.03096623718738556, -0.698293924331665, 0.13858959078788757, -0.7022666931152344, -0.02755129337310791, -0.05892346799373627, -0.028904080390930176, -0.0772897528570518, -0.378011851637839, 0.9225535522739553,-0.005315022207642624,-0.746551513671875,0.0861358642578125,-0.718017578125
20230215-1532,2023-02-15 15:32:19Z,u02, 21,100,movements,el-ex, lt, nd,281209.6694605, -0.7836746084289594, -0.1250456090904838, -0.07091004782265167, -0.3111812472343445, -0.19794973731040955, 0.032097283750772476, -0.7003754377365112, 0.12471998482942581, -0.7027938961982727, -0.02418804168701172, -0.064539335668087, -0.04070591926574707, -0.07122073379530847, -0.3788544229127023, 0.9226693044640067,-0.008850871118761145,-0.7258453369140625,0.0796661376953125,-0.731170654296875
20230215-1532,2023-02-15 15:32:19Z,u02, 22,100,movements,el-ex, lt, nd,281209.6794835, -0.7870522728467191, -0.11659234467803904, -0.07295022508481885, -0.24720847606658936, -0.10504509508609772, 0.009788675233721733, -0.7034668326377869, 0.11632836610078812, -0.7011434435844421, -0.01815176010131836, -0.05909266322851181, -0.07169902324676514, -0.0677333258660781, -0.3805791428613236, 0.9221952091399332,-0.011296373221355242,-0.7245635986328125,0.0601806640625,-0.743499755859375
20230215-1532,2023-02-15 15:32:19Z,u02, 23,100,movements,el-ex, lt, nd,281209.6895055, -0.7878997702385702, -0.11810882486091435, -0.07461805535590055, -0.1970643550157547, -0.03140309825539589, -0.03355347365140915, -0.703934907913208, 0.1178344190120697, -0.7004217505455017, 0.02014291286468506, -0.0733245462179184, -0.09163153171539307, -0.0687536083247171, -0.3808701327132105, 0.9219939838679464,-0.01174469510806015,-0.72161865234375,0.0572357177734375,-0.7728424072265625
20230215-1532,2023-02-15 15:32:19Z,u02, 24,100,movements,el-ex, lt, nd,281209.69952850003, -0.7881223596908199, -0.11883240960434278, -0.07618883936725535, -0.13146933913230896, 0.02491477131843567, -0.08686070889234543, -0.7040302157402039, 0.11855293065309525, -0.7002047896385193, 0.05388379096984863, -0.10927560180425644, -0.12499058246612549, -0.06938702685624615, -0.380897699854509, 0.9219276438960029,-0.012321817973893775,-0.6837921142578125,0.0445098876953125,-0.79205322265625
20230215-1532,2023-02-15 15:32:19Z,u02, 25,100,movements,el-ex, lt, nd,281209.70955150004, -0.7878454551205201, -0.11875243804169718, -0.07763989741262735, -0.06484930962324142, 0.06162005290389061, -0.12527680397033691, -0.7038429975509644, 0.11847352236509323, -0.7004063725471497, 0.053666114807128906, -0.13208436965942383, -0.12719988822937012, -0.06962476742477358, -0.3807219555665147, 0.9219727646007143,-0.01301573800266346,-0.650146484375,0.00927734375,-0.8251953125
20230215-1532,2023-02-15 15:32:19Z,u02, 26,100,movements,el-ex, lt, nd,281209.71957325004, -0.7872480403443235, -0.11803823643284883, -0.07897924596995348, -0.025250613689422607, 0.09212309867143631, -0.15582263469696045, -0.7034841775894165, 0.11776432394981384, -0.7008862495422363, 0.044747114181518555, -0.14687809348106384, -0.10666990280151367, -0.06954699827356571, -0.38042092232453223, 0.9220916162450877,-0.013791415114500032,-0.650177001953125,-0.01361083984375,-0.827606201171875
20230215-1532,2023-02-15 15:32:20Z,u02, 27,100,movements,el-ex, lt, nd,281209.72959625, -0.7861219102835013, -0.11715864869400636, -0.08026067652501716, -0.041964877396821976, 0.1608363837003708, -0.14393986761569977, -0.7027674913406372, 0.1168908104300499, -0.7017509341239929, 0.0011074542999267578, -0.150566965341568, -0.020233988761901855, -0.06937778814957891, -0.37988319905095436, 0.9223137031260192,-0.014590484256267773,-0.6587371826171875,-0.02911376953125,-0.80755615234375
20230215-1532,2023-02-15 15:32:20Z,u02, 28,100,movements,el-ex, lt, nd,281209.73961925, -0.7843830246960961, -0.11679333683560929, -0.08164099243933702, -0.0838870257139206, 0.2131512612104416, -0.08518467843532562, -0.701576292514801, 0.1165279969573021, -0.7030020952224731, -0.0211867094039917, -0.12357756495475769, 0.05926424264907837, -0.06945849283361757, -0.3790441445085493, 0.922640336545335,-0.01535760437757453,-0.70166015625,-0.0336761474609375,-0.72198486328125
20230215-1532,2023-02-15 15:32:20Z,u02, 29,100,movements,el-ex, lt, nd,281209.74964125, -0.7822081947547096, -0.1169786771117024, -0.0827799119438533, -0.10785308480262756, 0.249940425157547, -0.05446431785821915, -0.7000304460525513, 0.1167120710015297, -0.7045109272003174, -0.00393366813659668, -0.13313055038452148, 0.06969946622848511, -0.0697423897365114, -0.3779954306366798, 0.9230394492085573,-0.01592331948265709,-0.7227630615234375,-0.007049560546875,-0.64373779296875
20230215-1532,2023-02-15 15:32:20Z,u02, 30,100,movements,el-ex, lt, nd,281209.75966425, -0.779625895242148, -0.11758364526167321, -0.08371365789064115, -0.09883881360292435, 0.28445953130722046, 0.0071737440302968025, -0.6981590390205383, 0.11731288582086563, -0.7062658667564392, 0.014061927795410156, -0.08958768099546432, 0.05572265386581421, -0.07017647543135457, -0.376752346026493, 0.9235074648369587,-0.016329182389048975,-0.7039642333984375,-0.01641845703125,-0.6348114013671875
20230215-1532,2023-02-15 15:32:20Z,u02, 31,100,movements,el-ex, lt, nd,281209.76968625, -0.7766308374558417, -0.11819663768687233, -0.08397933213025734, -0.022606894373893738, 0.31532344222068787, 0.03312678262591362, -0.6959901452064514, 0.1179216206073761, -0.7083023190498352, 0.03983175754547119, -0.0811632052063942, 0.02895045280456543, -0.07048444515069414, -0.37534087830428686, 0.9240567215931172,-0.016440562978238187,-0.6840972900390625,0.0277252197265625,-0.650543212890625
20230215-1532,2023-02-15 15:32:20Z,u02, 32,100,movements,el-ex, lt, nd,281209.77970925, -0.7732864959840066, -0.11844161973167039, -0.08373124496562305, 0.020017171278595924, 0.34609171748161316, 0.04378616437315941, -0.6935971975326538, 0.11816488951444626, -0.710605263710022, 0.03136587142944336, -0.08989037573337555, -0.0032314062118530273, -0.07052353087867802, -0.3737964624310431, 0.9246802457329985,-0.016397349619938172,-0.656158447265625,0.0367584228515625,-0.679351806640625
20230215-1532,2023-02-15 15:32:20Z,u02, 33,100,movements,el-ex, lt, nd,281209.78973225004, -0.7697628294809512, -0.11857454350870694, -0.08326201780474171, 0.031094055622816086, 0.34169885516166687, 0.042851660400629044, -0.6910780668258667, 0.11829688400030136, -0.7130335569381714, 0.006645143032073975, -0.10514380782842636, 0.00020396709442138672, -0.07046859028318891, -0.3721792394887338, 0.9253386385882496,-0.01627943860863199,-0.6622314453125,0.0282745361328125,-0.713836669921875
20230215-1532,2023-02-15 15:32:20Z,u02, 34,100,movements,el-ex, lt, nd,281209.79975425004, -0.766343899333519, -0.1182927495495944, -0.08244985852671716, 0.13221877813339233, 0.3227240741252899, 0.02939891628921032, -0.6886593103408813, 0.11801706254482269, -0.7154161334037781, -0.0063784122467041016, -0.1260889768600464, -0.027732670307159424, -0.0701599499814969, -0.37063392954905616, 0.9259856469586969,-0.016076715782764716,-0.6844329833984375,0.013153076171875,-0.71282958984375
20230215-1532,2023-02-15 15:32:20Z,u02, 35,100,movements,el-ex, lt, nd,281209.80977725, -0.7631657986720469, -0.11720216051149933, -0.08106428495031916, 0.2006809264421463, 0.2738822400569916, 0.021117815747857094, -0.6864706873893738, 0.11693402379751205, -0.7176937460899353, -0.036643147468566895, -0.13953231275081635, -0.018069803714752197, -0.06937424903049798, -0.3692429360313091, 0.9266059524528217,-0.01575001158167219,-0.695037841796875,-0.0080718994140625,-0.7431488037109375
20230215-1532,2023-02-15 15:32:20Z,u02, 36,100,movements,el-ex, lt, nd,281209.81979925, -0.7606834146386569, -0.11599429853123601, -0.07958765785953997, 0.16482214629650116, 0.183311328291893, 0.025530515238642693, -0.6847838759422302, 0.11573436111211777, -0.7194974422454834, -0.062408387660980225, -0.15232494473457336, 0.05802887678146362, -0.06852399625549198, -0.36817896338119627, 0.9270988232271637,-0.015376584791375407,-0.723114013671875,-0.0225982666015625,-0.7357635498046875
20230215-1532,2023-02-15 15:32:20Z,u02, 37,100,movements,el-ex, lt, nd,281209.82982225, -0.7592400033190644, -0.11519673789407368, -0.07835837572746773, 0.12852059304714203, 0.07682696729898453, 0.039139267057180405, -0.6838079690933228, 0.11494212597608566, -0.7205517888069153, -0.0855095386505127, -0.16538769006729126, 0.08001834154129028, -0.06791783194265692, -0.3675748405400168, 0.9273891574340744,-0.015004287690531958,-0.7471923828125,-0.036590576171875,-0.661468505859375
20230215-1532,2023-02-15 15:32:20Z,u02, 38,100,movements,el-ex, lt, nd,281209.83984525, -0.7640425168071384, -0.10703754002454141, -0.07780721136331561, 0.11166395992040634, -0.015332784503698349, 0.03946539759635925, -0.6878864765167236, 0.10683327168226242, -0.7179127931594849, -0.10277813673019409, -0.19147378206253052, 0.06509602069854736, -0.06407822763123035, -0.3700507875934641, 0.9266588813820202,-0.01611136849951991,-0.769317626953125,-0.050445556640625,-0.640533447265625
20230215-1532,2023-02-15 15:32:20Z,u02, 39,100,movements,el-ex, lt, nd,281209.84986725, -0.7649640728580177, -0.10122790877863208, -0.07699963337111364, 0.05033748969435692, -0.1099916473031044, 0.03353933244943619, -0.6889659762382507, 0.10105511546134949, -0.7177141904830933, -0.10085934400558472, -0.195613831281662, 0.08526790142059326, -0.06124894804796429, -0.3706635531403358, 0.9265931374632971,-0.01679500768820649,-0.7906646728515625,-0.0846405029296875,-0.6528167724609375
20230215-1532,2023-02-15 15:32:20Z,u02, 40,100,movements,el-ex, lt, nd,281209.85989025, -0.7646484637792893, -0.09516530320101521, -0.07646027768891271, -0.0102629903703928, -0.1854906678199768, 0.026518892496824265, -0.689150869846344, 0.09502172470092773, -0.7183604836463928, -0.08265382051467896, -0.16473913192749023, 0.10335499048233032, -0.05834149697371648, -0.37069666354704206, 0.9267508513377434,-0.01768877373074513,-0.789825439453125,-0.0945587158203125,-0.6324462890625
20230215-1532,2023-02-15 15:32:20Z,u02, 41,100,movements,el-ex, lt, nd,281209.86991225, -0.766865756773855, -0.08679566435745807, -0.0765234488784517, -0.050008803606033325, -0.2546425759792328, 0.015152787789702415, -0.6912696361541748, 0.08668672293424606, -0.7173782587051392, -0.07461464405059814, -0.14531099796295166, 0.08874666690826416, -0.0545014493448599, -0.3719414767256707, 0.9264552719196348,-0.01922289479301889,-0.7718048095703125,-0.0697174072265625,-0.6150054931640625
20230215-1532,2023-02-15 15:32:20Z,u02, 42,100,movements,el-ex, lt, nd,281209.87993525004, -0.7670670863927012, -0.0742414997238928, -0.07668344875536673, -0.07904089987277985, -0.3359549939632416, 0.0013442708877846599, -0.6921148300170898, 0.07417331635951996, -0.7179660201072693, -0.054772257804870605, -0.13168370723724365, 0.06217378377914429, -0.04872473142954719, -0.37234780162571984, 0.9265604144901981,-0.021645752749404175,-0.7658843994140625,-0.058624267578125,-0.628631591796875
20230215-1532,2023-02-15 15:32:20Z,u02, 43,100,movements,el-ex, lt, nd,281209.88995825005, -0.7708703744515935, -0.07493814100580126, -0.07740976039502916, -0.12141577899456024, -0.4103187322616577, -0.008103826083242893, -0.694804310798645, 0.07486802339553833, -0.7152913212776184, -0.04045557975769043, -0.12043078243732452, 0.06848651170730591, -0.04922377130888668, -0.37407401165122744, 0.9258358604837501,-0.02175805160598491,-0.74688720703125,-0.0575103759765625,-0.655792236328125
20230215-1532,2023-02-15 15:32:20Z,u02, 44,100,movements,el-ex, lt, nd,281209.89998025, -0.7754134319418068, -0.07588361625440312, -0.07840654842161227, -0.15170660614967346, -0.47845596075057983, -0.004124370403587818, -0.6979968547821045, 0.07581081241369247, -0.7120765447616577, -0.03163254261016846, -0.11201992630958557, 0.07004767656326294, -0.04989728515364686, -0.37612762997238786, 0.924963367759644,-0.021928077554443145,-0.735260009765625,-0.045562744140625,-0.6468048095703125
20230215-1532,2023-02-15 15:32:20Z,u02, 45,100,movements,el-ex, lt, nd,281209.91000325, -0.7805331408468057, -0.07707490473217772, -0.0796272860540733, -0.1996845155954361, -0.5225701928138733, -0.003634348511695862, -0.7015692591667175, 0.07699861377477646, -0.7084289789199829, -0.02003401517868042, -0.11806003004312515, 0.07038277387619019, -0.050733940630422025, -0.37843304810123857, 0.9239719637777378,-0.022137153853337227,-0.7296295166015625,-0.0362091064453125,-0.64202880859375
20230215-1532,2023-02-15 15:32:20Z,u02, 46,100,movements,el-ex, lt, nd,281209.92002525, -0.7861374638941514, -0.07873541652025251, -0.08138855304432527, -0.2792947590351105, -0.5704900622367859, -0.007428687997162342, -0.7054371237754822, 0.07865408807992935, -0.7043948173522949, -0.0017924308776855469, -0.11118583381175995, 0.09918540716171265, -0.051896503114516976, -0.3809322111152495, 0.9228714236975155,-0.022488919934259874,-0.7216033935546875,-0.0410614013671875,-0.6380462646484375
20230215-1532,2023-02-15 15:32:20Z,u02, 47,100,movements,el-ex, lt, nd,281209.93004825, -0.792187457069027, -0.08071413433410547, -0.08344767712213463, -0.28276965022087097, -0.5950899124145508, -0.0011116692330688238, -0.70957350730896, 0.08062652498483658, -0.7000033259391785, 0.006128191947937012, -0.11224274337291718, 0.05948507785797119, -0.053269943097417345, -0.38361522464495, 0.9216708670299593,-0.022898185864565847,-0.7072296142578125,-0.03253173828125,-0.6052093505859375
20230215-1532,2023-02-15 15:32:20Z,u02, 48,100,movements,el-ex, lt, nd,281209.94007125, -0.7982302738483754, -0.08270368415783397, -0.08547970376110679, -0.28338080644607544, -0.5796625018119812, 0.0032335706055164337, -0.7136742472648621, 0.08260943740606308, -0.6955894231796265, -0.01671808958053589, -0.11445454508066177, 0.05119556188583374, -0.05464575608978292, -0.3862889100482867, 0.9204631578055533,-0.023284870948868254,-0.7034454345703125,-0.0316162109375,-0.6405181884765625
20230215-1532,2023-02-15 15:32:20Z,u02, 49,100,movements,el-ex, lt, nd,281209.95009325, -0.8040887985286215, -0.0846926868266235, -0.08731683752794266, -0.25854629278182983, -0.5593617558479309, 0.022601943463087082, -0.717617392539978, 0.08459147810935974, -0.6912811398506165, -0.007876932621002197, -0.10337505489587784, 0.04494929313659668, -0.05598382816641313, -0.38887691377946415, 0.9192848336695153,-0.02357904590495985,-0.7303924560546875,-0.0318450927734375,-0.6443939208984375
20230215-1532,2023-02-15 15:32:20Z,u02, 50,100,movements,el-ex, lt, nd,281209.96011625003, -0.8097602525182988, -0.08654659660278845, -0.08903581151770176, -0.2434927374124527, -0.5426703691482544, 0.005997905507683754, -0.7214115262031555, 0.08643859624862671, -0.6870906949043274, 0.024542808532714844, -0.1074499636888504, 0.03637963533401489, -0.05723661717575343, -0.39138039812949166, 0.9181376231558556,-0.023843286293711442,-0.725494384765625,-0.0187835693359375,-0.646331787109375
20230215-1532,2023-02-15 15:32:20Z,u02, 51,100,movements,el-ex, lt, nd,281209.97013825004, -0.8152195122898164, -0.08828507022368588, -0.09093212557170743, -0.2700316905975342, -0.5157152414321899, -0.009639643132686615, -0.7250413298606873, 0.08817043155431747, -0.683038055896759, 0.03906726837158203, -0.09799709916114807, 0.05367398262023926, -0.058470679151786574, -0.3937793359381978, 0.9170237912393632,-0.02421099475280159,-0.696868896484375,-0.0210113525390625,-0.6507110595703125
20230215-1532,2023-02-15 15:32:20Z,u02, 52,100,movements,el-ex, lt, nd,281209.98016125005, -0.8204633858713916, -0.0900642729812894, -0.0931107680545666, -0.2944306433200836, -0.4871019124984741, -0.029482832178473473, -0.7284972071647644, 0.0899425595998764, -0.6791186332702637, 0.032147228717803955, -0.0895763635635376, 0.06446409225463867, -0.059778844598480256, -0.3960646076945166, 0.9159417285943946,-0.024699650342413237,-0.68597412109375,-0.00982666015625,-0.629364013671875
20230215-1532,2023-02-15 15:32:20Z,u02, 53,100,movements,el-ex, lt, nd,281209.99018425, -0.8253609920614667, -0.09194974579965917, -0.09574583833819095, -0.34522831439971924, -0.4452487528324127, -0.04800910875201225, -0.7316886186599731, 0.09182023257017136, -0.6754263639450073, 0.013396501541137695, -0.08432817459106445, 0.06318265199661255, -0.06122477127302056, -0.39816874094340415, 0.9149147406343606,-0.025379515758668803,-0.69635009765625,0.0003662109375,-0.614654541015625
20230215-1532,2023-02-15 15:32:20Z,u02, 54,100,movements,el-ex, lt, nd,281210.00020625, -0.829914854781181, -0.09394567232629424, -0.09876537930454571, -0.35325726866722107, -0.406681627035141, -0.05890421196818352, -0.7346200942993164, 0.09380754083395004, -0.671962320804596, -0.006621241569519043, -0.08921465277671814, 0.05562925338745117, -0.0627968697976038, -0.40009423907988995, 0.9139440194524686,-0.026216454305907005,-0.718292236328125,0.0074920654296875,-0.61224365234375
20230215-1532,2023-02-15 15:32:20Z,u02, 55,100,movements,el-ex, lt, nd,281210.01022925, -0.8339322724855144, -0.0957333941302648, -0.10167321784395333, -0.31845375895500183, -0.33935800194740295, -0.06818745285272598, -0.7371883392333984, 0.09558723121881485, -0.6688918471336365, -0.04606044292449951, -0.11145637929439545, 0.004630923271179199, -0.06424813853558392, -0.4017788450578093, 0.9130793349254838,-0.02705476562497172,-0.741241455078125,0.0045928955078125,-0.6163330078125
20230215-1532,2023-02-15 15:32:20Z,u02, 56,100,movements,el-ex, lt, nd,281210.02025125, -0.8373231413127262, -0.09722199164814581, -0.10431629512041388, -0.26021286845207214, -0.29074278473854065, -0.06399361789226532, -0.7393457293510437, 0.0970689058303833, -0.6662923097610474, -0.04916733503341675, -0.0853654220700264, 0.009782910346984863, -0.06550441068568065, -0.40319102802229, 0.9123434560266641,-0.0278480102505289,-0.7832489013671875,-0.015869140625,-0.6642608642578125
20230215-1532,2023-02-15 15:32:20Z,u02, 57,100,movements,el-ex, lt, nd,281210.03027425, -0.8400831496767456, -0.09817186440783648, -0.10638741337907975, -0.17460770905017853, -0.21720625460147858, -0.06772763282060623, -0.7411128878593445, 0.09801425039768219, -0.6641873717308044, -0.03143948316574097, -0.06204929202795029, 0.000750422477722168, -0.06639359274595008, -0.40434911640219273, 0.9117460983137592,-0.02850748157664675,-0.78851318359375,0.0117034912109375,-0.6565093994140625
20230215-1532,2023-02-15 15:32:20Z,u02, 58,100,movements,el-ex, lt, nd,281210.04029725003, -0.8421889696452136, -0.09882696760925676, -0.10804733210203514, -0.17537446320056915, -0.1715727150440216, -0.056909285485744476, -0.7424618601799011, 0.09866617619991302, -0.6625823378562927, -0.038253962993621826, -0.06311322003602982, -0.018508970737457275, -0.06705772257718785, -0.40523090746711593, 0.9112884538790272,-0.029059580732827665,-0.772552490234375,0.0359649658203125,-0.6634368896484375
20230215-1532,2023-02-15 15:32:20Z,u02, 59,100,movements,el-ex, lt, nd,281210.05031925003, -0.8439367052629894, -0.09953075421103089, -0.10975126127711189, -0.15417571365833282, -0.14044223725795746, -0.06299488246440887, -0.743566632270813, 0.09936650097370148, -0.661237359046936, -0.005502462387084961, -0.04312261939048767, -0.051851630210876465, -0.06774874900146766, -0.4059450902791061, 0.910900904500818,-0.029632442793890185,-0.7807159423828125,0.035552978515625,-0.68109130859375
20230215-1532,2023-02-15 15:32:20Z,u02, 60,100,movements,el-ex, lt, nd,281210.06034225004, -0.8450172048159926, -0.09968084816308603, -0.11079789646803084, -0.0171931441873312, -0.04235294833779335, -0.04815678298473358, -0.7442694902420044, 0.09951585531234741, -0.6604236960411072, 0.027045488357543945, -0.02354235202074051, -0.1248546838760376, -0.0680456024765429, -0.40639629741506356, 0.9106642144695489,-0.030041533657423056,-0.7490692138671875,0.056243896484375,-0.7130889892578125
20230215-1532,2023-02-15 15:32:20Z,u02, 61,100,movements,el-ex, lt, nd,281210.07036525, -0.8449885523734723, -0.0991305501907504, -0.11080357386764884, 0.07512347400188446, 0.03923991322517395, -0.03725539892911911, -0.7442914843559265, 0.0989682748913765, -0.6604812741279602, 0.02226090431213379, 0.005645982921123505, -0.15169835090637207, -0.06779637311982996, -0.4064025261025708, 0.910676195001521,-0.030158293564858635,-0.71722412109375,0.0759735107421875,-0.7852783203125
20230215-1532,2023-02-15 15:32:20Z,u02, 62,100,movements,el-ex, lt, nd,281210.08038725, -0.8441512842768291, -0.09816477337382719, -0.11026725260616904, 0.13049465417861938, 0.12021492421627045, -0.035393744707107544, -0.7438092827796936, 0.0980071946978569, -0.6611674427986145, 0.049900710582733154, 0.0313873291015625, -0.15829062461853027, -0.06723608948609965, -0.4060733892758273, 0.9108651417123458,-0.030140892742557407,-0.7220306396484375,0.1046142578125,-0.8121795654296875
20230215-1532,2023-02-15 15:32:20Z,u02, 63,100,movements,el-ex, lt, nd,281210.09041025, -0.8424585808595488, -0.09725974030247335, -0.10967179666027244, 0.06431563943624496, 0.20319369435310364, -0.017628062516450882, -0.7427549362182617, 0.09710647910833359, -0.6624842882156372, 0.04750359058380127, 0.050446003675460815, -0.09575551748275757, -0.06667853276075715, -0.40535396125460116, 0.9112274187169151,-0.030112126062126522,-0.69390869140625,0.12939453125,-0.8194580078125
20230215-1532,2023-02-15 15:32:20Z,u02, 64,100,movements,el-ex, lt, nd,281210.10043225, -0.84005069108929, -0.09702163260337202, -0.10942473073750743, 0.016824249178171158, 0.2707900404930115, 0.011946768499910831, -0.7411748170852661, 0.09686949104070663, -0.6642862558364868, 0.033792734146118164, 0.08496949076652527, -0.05281585454940796, -0.06648400555207663, -0.4042731204845207, 0.9117211239517478,-0.030128461466767967,-0.69525146484375,0.147552490234375,-0.75823974609375
20230215-1532,2023-02-15 15:32:20Z,u02, 65,100,movements,el-ex, lt, nd,281210.11045525, -0.8369381419982176, -0.09722717162809243, -0.10926217289457704, -0.032040759921073914, 0.3548993468284607, 0.034558337181806564, -0.739088773727417, 0.09707406163215637, -0.666576623916626, -0.005936741828918457, 0.04799123853445053, -0.0470770001411438, -0.06649783381477166, -0.40285199681249717, 0.9123493568592541,-0.030115838328316002,-0.7073822021484375,0.1818389892578125,-0.71710205078125
20230215-1532,2023-02-15 15:32:20Z,u02, 66,100,movements,el-ex, lt, nd,281210.12047825, -0.833084164943746, -0.0979343724775571, -0.1092324436177076, -0.04895516112446785, 0.4107958972454071, 0.07124654948711395, -0.7364633679389954, 0.09777789562940598, -0.6693737506866455, -0.03837788105010986, 0.07797282934188843, -0.018843472003936768, -0.06675583248773438, -0.4010695497996735, 0.9131164685779062,-0.030086805286152783,-0.745025634765625,0.1450653076171875,-0.713653564453125
20230215-1532,2023-02-15 15:32:20Z,u02, 67,100,movements,el-ex, lt, nd,281210.13050025003, -0.8287786023342097, -0.09876167266535463, -0.10902168465319553, -0.02386632189154625, 0.4346029460430145, 0.07975348830223083, -0.7335146069526672, 0.09860119968652725, -0.672483503818512, -0.04334074258804321, 0.09251511842012405, 0.028501570224761963, -0.06702602775752414, -0.3990811389470017, 0.913971377932365,-0.029967016727571887,-0.77484130859375,0.175750732421875,-0.6882171630859375
20230215-1532,2023-02-15 15:32:20Z,u02, 68,100,movements,el-ex, lt, nd,281210.14052325004, -0.8244408536534242, -0.09949450446476685, -0.10867373196196536, -0.029590006917715073, 0.42522090673446655, 0.06978253275156021, -0.7305374145507812, 0.09933043271303177, -0.6756097078323364, -0.039543092250823975, 0.10496948659420013, 0.041378140449523926, -0.06722620992476205, -0.39708408542194207, 0.9148313536817255,-0.02980584764737235,-0.77685546875,0.1911163330078125,-0.64398193359375
20230215-1532,2023-02-15 15:32:20Z,u02, 69,100,movements,el-ex, lt, nd,281210.15054525004, -0.8201804156446885, -0.10007516644614861, -0.10833311238751529, -0.00043425150215625763, 0.4188183844089508, 0.05417773872613907, -0.7276100516319275, 0.09990821033716202, -0.6786764860153198, -0.04424041509628296, 0.10503258556127548, 0.023723483085632324, -0.06736049916149824, -0.3951256855077793, 0.9156731500155219,-0.02967687811256791,-0.77008056640625,0.2042999267578125,-0.6342315673828125
20230215-1532,2023-02-15 15:32:20Z,u02, 70,100,movements,el-ex, lt, nd,281210.16056825, -0.8160217818399846, -0.10033758619027335, -0.10803049498590625, 0.01049794815480709, 0.4003312587738037, 0.028384117409586906, -0.7247622609138489, 0.10016930848360062, -0.6816785335540771, -0.03985553979873657, 0.08388218283653259, -0.006309807300567627, -0.0673591207848687, -0.39322194305152264, 0.9164940251199811,-0.02962595713167115,-0.7718505859375,0.2049407958984375,-0.6549530029296875
20230215-1532,2023-02-15 15:32:20Z,u02, 71,100,movements,el-ex, lt, nd,281210.17059125, -0.8121729899686746, -0.10038686357459, -0.10792874464357777, -0.006347077898681164, 0.3593183159828186, -0.010358484461903572, -0.7221297025680542, 0.10021834075450897, -0.6844595074653625, 0.00034332275390625, 0.11270278692245483, 0.02386075258255005, -0.06730461232353603, -0.3914592251783758, 0.9172499907700135,-0.029699095761324706,-0.764617919921875,0.184051513671875,-0.68798828125
20230215-1532,2023-02-15 15:32:20Z,u02, 72,100,movements,el-ex, lt, nd,281210.18061325, -0.8090198207117814, -0.10025918199771576, -0.10821930412333004, -0.02184372767806053, 0.2744276523590088, -0.04897706210613251, -0.7199772000312805, 0.10009130090475082, -0.6867419481277466, 0.03467452526092529, 0.13106408715248108, 0.025578618049621582, -0.06725590041857772, -0.39000725610530557, 0.91786332251406,-0.029963734789292516,-0.7217864990234375,0.212921142578125,-0.6605987548828125
20230215-1532,2023-02-15 15:32:20Z,u02, 73,100,movements,el-ex, lt, nd,281210.19063625, -0.806767481131997, -0.10012290924874771, -0.10894579662589696, -0.05733061581850052, 0.19095514714717865, -0.06198341026902199, -0.7184383869171143, 0.09995570778846741, -0.6883712410926819, 0.03530251979827881, 0.1368606835603714, 0.02255403995513916, -0.06730098387328656, -0.38895365465486853, 0.9182925951272934,-0.0303998675437634,-0.685302734375,0.2311553955078125,-0.661163330078125
20230215-1532,2023-02-15 15:32:20Z,u02, 74,100,movements,el-ex, lt, nd,281210.20065825, -0.8052743179345417, -0.10005840367221815, -0.10982151336565162, -0.051515258848667145, 0.12620170414447784, -0.06977272778749466, -0.717414379119873, 0.0998915284872055, -0.6894477009773254, 0.016059577465057373, 0.1369706392288208, 0.01633673906326294, -0.0674187104885038, -0.3882407235338754, 0.9185701143262938,-0.03086499609122919,-0.683135986328125,0.23681640625,-0.6658172607421875
20230215-1532,2023-02-15 15:32:20Z,u02, 75,100,movements,el-ex, lt, nd,281210.21068125, -0.804437737959927, -0.09997197407976256, -0.11077549844923872, -0.07651568949222565, 0.056834086775779724, -0.0701301246881485, -0.7168436050415039, 0.09980553388595581, -0.6900536417961121, 0.011292576789855957, 0.1266959309577942, 0.016881585121154785, -0.06755118180505706, -0.3878273057377037, 0.9187186490838519,-0.03134839904763171,-0.70135498046875,0.2368621826171875,-0.6731109619140625
20230215-1532,2023-02-15 15:32:20Z,u02, 76,100,movements,el-ex, lt, nd,281210.22070425004, -0.804315958341154, -0.09986471245110581, -0.11165882034881074, -0.018286313861608505, -0.008412294089794159, -0.06978199630975723, -0.7167672514915466, 0.09969880431890488, -0.6901483535766602, 0.04078775644302368, 0.14398404955863953, 0.011727333068847656, -0.06767137456820159, -0.3877452897498881, 0.9187296163326395,-0.031779351780677874,-0.7055511474609375,0.22650146484375,-0.6731719970703125
20230215-1532,2023-02-15 15:32:20Z,u02, 77,100,movements,el-ex, lt, nd,281210.23072625004, -0.8046743772752158, -0.09929992216781512, -0.11226351935027133, 0.005763095337897539, -0.052613310515880585, -0.0876278355717659, -0.7170550227165222, 0.09913681447505951, -0.6899303197860718, 0.05392342805862427, 0.1393427848815918, -0.005946755409240723, -0.06753554304615172, -0.38790950053960893, 0.9186571966911063,-0.0321559711592722,-0.6759796142578125,0.243682861328125,-0.6784210205078125
20230215-1532,2023-02-15 15:32:20Z,u02, 78,100,movements,el-ex, lt, nd,281210.24074925, -0.805310544402783, -0.09847562025783799, -0.1126724684599213, 0.04669319838285446, -0.05747357755899429, -0.09097183495759964, -0.7175524830818176, 0.09831653535366058, -0.6895303726196289, 0.05071300268173218, 0.13003122806549072, -0.03077596426010132, -0.06724747382000583, -0.38821717970347563, 0.9185367357105216,-0.03248441136202556,-0.6631317138671875,0.2384796142578125,-0.6958770751953125
20230215-1532,2023-02-15 15:32:20Z,u02, 79,100,movements,el-ex, lt, nd,281210.25077125, -0.8058881012653566, -0.09741839025163194, -0.11299073969125964, 0.048092156648635864, -0.05678834766149521, -0.10335180163383484, -0.7180252075195312, 0.0972643718123436, -0.6891874670982361, 0.0497208833694458, 0.11023988574743271, -0.02571737766265869, -0.06683431680295415, -0.38850924245237767, 0.91843159312266,-0.032819195735232766,-0.666839599609375,0.2283477783203125,-0.720306396484375
20230215-1532,2023-02-15 15:32:20Z,u02, 80,100,movements,el-ex, lt, nd,281210.26079425, -0.8065225014329513, -0.0962706801120357, -0.11348614215953794, 0.03976563364267349, -0.05436726659536362, -0.13061213493347168, -0.7185423970222473, 0.09612204134464264, -0.6888086199760437, 0.07651370763778687, 0.09102699905633926, -0.040546298027038574, -0.06641528872992183, -0.3888247596279714, 0.9183129202804251,-0.03325147467543306,-0.668304443359375,0.2075042724609375,-0.71490478515625
20230215-1532,2023-02-15 15:32:20Z,u02, 81,100,movements,el-ex, lt, nd,281210.27081725, -0.8050282715029379, -0.11036327888021222, -0.11400969454737124, 0.03807292878627777, -0.023805364966392517, -0.15602508187294006, -0.716464638710022, 0.1101393774151802, -0.6888741850852966, 0.06732535362243652, 0.0515122190117836, -0.04475313425064087, -0.07294789034867265, -0.387610016965134, 0.9184171688075646,-0.030770377391328176,-0.64202880859375,0.1871490478515625,-0.7293548583984375
20230215-1532,2023-02-15 15:32:20Z,u02, 82,100,movements,el-ex, lt, nd,281210.28083925, -0.8048224922008897, -0.12213594560146872, -0.11479760219852159, 0.04062142223119736, 0.006310459226369858, -0.15784306824207306, -0.7153388261795044, 0.12183251976966858, -0.6880750060081482, 0.06088942289352417, 0.029931381344795227, -0.04565918445587158, -0.07848776177344079, -0.38704284894309476, 0.9182628524014431,-0.028824036194171506,-0.649139404296875,0.161651611328125,-0.7336273193359375
20230215-1532,2023-02-15 15:32:20Z,u02, 83,100,movements,el-ex, lt, nd,281210.29086225, -0.8048878742689834, -0.13166649527029534, -0.11559863591254989, 0.07168293744325638, 0.053660664707422256, -0.17808549106121063, -0.7145143747329712, 0.1312863975763321, -0.6871920824050903, 0.06841158866882324, 0.021438807249069214, -0.05053985118865967, -0.08300532419542268, -0.38667049870287445, 0.9180685412789975,-0.027313641492244523,-0.654449462890625,0.151763916015625,-0.733734130859375
20230215-1532,2023-02-15 15:32:20Z,u02, 84,100,movements,el-ex, lt, nd,281210.30088425, -0.8017448877856633, -0.14341040299491836, -0.11586504917331185, 0.08176731318235397, 0.1039227694272995, -0.14898201823234558, -0.7111940979957581, 0.14291933178901672, -0.68831467628479, 0.06193274259567261, 0.019586756825447083, -0.03956019878387451, -0.0883890835989836, -0.38474672903602924, 0.9184329640555768,-0.025262805915513997,-0.6461029052734375,0.1527252197265625,-0.73773193359375
20230215-1532,2023-02-15 15:32:20Z,u02, 85,100,movements,el-ex, lt, nd,281210.31090725004, -0.7951970562550759, -0.15553811366393042, -0.11530967862329791, 0.10516691207885742, 0.13814039528369904, -0.1196046769618988, -0.7053823471069336, 0.15491174161434174, -0.6916921734809875, 0.06666481494903564, 0.01465916633605957, -0.023624658584594727, -0.09375575135341074, -0.3812660265217342, 0.9194128643477014,-0.02293509933561578,-0.649261474609375,0.162506103515625,-0.727874755859375
20230215-1532,2023-02-15 15:32:20Z,u02, 86,100,movements,el-ex, lt, nd,281210.32093025, -0.7882303017234805, -0.16242679718055522, -0.1144967082229206, 0.07253379374742508, 0.16291764378547668, -0.0759129673242569, -0.6997731328010559, 0.16171354055404663, -0.6958205699920654, 0.06317651271820068, -3.141164779663086e-05, -0.00585484504699707, -0.0966806479224657, -0.37781286137530773, 0.920568061882637,-0.0215565687586333,-0.6387176513671875,0.1695709228515625,-0.7153167724609375
20230215-1532,2023-02-15 15:32:20Z,u02, 87,100,movements,el-ex, lt, nd,281210.33095225, -0.7831347071290184, -0.16614009594423332, -0.11408472588779366, -0.019681353121995926, 0.1757277250289917, -0.018007056787610054, -0.6957899928092957, 0.16537684202194214, -0.6989468932151794, 0.05218958854675293, -0.013155177235603333, 0.03677642345428467, -0.09825231052956676, -0.37533056644939666, 0.921431792723755,-0.02089993608228703,-0.6365966796875,0.16168212890625,-0.7016754150390625
20230215-1532,2023-02-15 15:32:20Z,u02, 88,100,movements,el-ex, lt, nd,281210.34097525, -0.7754910995693877, -0.16821685895976848, -0.11360911309181518, -0.12923447787761688, 0.16984213888645172, 0.0174734927713871, -0.6901852488517761, 0.16742464900016785, -0.7039979696273804, 0.04891955852508545, -0.010121822357177734, 0.08737504482269287, -0.09903784006232047, -0.3717425458216102, 0.9228065141417832,-0.020660647669029173,-0.6436004638671875,0.1522216796875,-0.66217041015625
20230215-1532,2023-02-15 15:32:20Z,u02, 89,100,movements,el-ex, lt, nd,281210.35099725, -0.7702100980902179, -0.16874972768428745, -0.1139684719879434, -0.21915264427661896, 0.14146775007247925, 0.029543736949563026, -0.6863957047462463, 0.16794997453689575, -0.7075689435005188, 0.04320728778839111, -0.028438866138458252, 0.10951590538024902, -0.09929444547343719, -0.3692643338265482, 0.9237662084466106,-0.02098732209133565,-0.641265869140625,0.1573028564453125,-0.6166229248046875
20230215-1532,2023-02-15 15:32:20Z,u02, 90,100,movements,el-ex, lt, nd,281210.36102025, -0.7667197403598174, -0.16953929221546876, -0.11498385512318027, -0.25834548473358154, 0.09909418970346451, 0.058632221072912216, -0.6838296055793762, 0.16872826218605042, -0.7098646759986877, 0.009589552879333496, -0.04943506419658661, 0.09704113006591797, -0.09980780533788867, -0.36756777710146304, 0.9243759639070633,-0.021481219191513478,-0.6431884765625,0.1395111083984375,-0.598052978515625
20230215-1532,2023-02-15 15:32:20Z,u02, 91,100,movements,el-ex, lt, nd,281210.37104325, -0.7635624861747683, -0.17075853712195346, -0.11568050966088947, -0.23406997323036194, 0.06535273790359497, 0.11502119898796082, -0.6814422011375427, 0.16992990672588348, -0.7118709683418274, -0.023117005825042725, -0.05864757299423218, 0.06791955232620239, -0.10046291994008254, -0.3660214538745034, 0.9249125248716086,-0.021732227375224605,-0.6742401123046875,0.119293212890625,-0.612823486328125
20230215-1532,2023-02-15 15:32:20Z,u02, 92,100,movements,el-ex, lt, nd,281210.38106525, -0.7612965630579731, -0.17251108109461727, -0.11587064793689313, -0.16998666524887085, 0.06342700868844986, 0.1359279602766037, -0.6796209216117859, 0.17165669798851013, -0.7131965756416321, -0.02556389570236206, -0.042262181639671326, 0.016831159591674805, -0.10128051679536759, -0.3648889954758752, 0.9252736693840268,-0.021606152378616014,-0.704559326171875,0.1112823486328125,-0.643951416015625
20230215-1532,2023-02-15 15:32:20Z,u02, 93,100,movements,el-ex, lt, nd,281210.39108825003, -0.7592532484006348, -0.17453162444132558, -0.11574037672947389, -0.16742417216300964, 0.05800721049308777, 0.14280956983566284, -0.6779220700263977, 0.17364689707756042, -0.7143306732177734, -0.0064345598220825195, -0.03514288365840912, 0.0036373138427734375, -0.10216606294095822, -0.36386364661773357, 0.9255877262327799,-0.021272269523399258,-0.7051849365234375,0.12939453125,-0.6963653564453125
20230215-1532,2023-02-15 15:32:20Z,u02, 94,100,movements,el-ex, lt, nd,281210.40111025004, -0.7579048240093245, -0.1763890877909069, -0.11583752081604208, -0.20433539152145386, 0.016030730679631233, 0.1335856020450592, -0.6767353415489197, 0.1754758358001709, -0.7150086760520935, 0.04142051935195923, -0.03211952745914459, -0.0029021501541137695, -0.10302567362105565, -0.3631547388030319, 0.9257761961040075,-0.021040055421626513,-0.684356689453125,0.1385040283203125,-0.710693359375
20230215-1532,2023-02-15 15:32:20Z,u02, 95,100,movements,el-ex, lt, nd,281210.41113325, -0.7585456661612736, -0.1782794773099505, -0.1164983557843574, -0.22269389033317566, -0.03894303739070892, 0.11433707922697067, -0.6769640445709229, 0.17733658850193024, -0.7143328189849854, 0.06794005632400513, -0.04739275574684143, -0.03273749351501465, -0.10402377569605521, -0.3633354302654896, 0.9255955344375915,-0.02096038449303702,-0.63531494140625,0.1433563232421875,-0.7179107666015625
20230215-1532,2023-02-15 15:32:20Z,u02, 96,100,movements,el-ex, lt, nd,281210.42115625, -0.7608333153672246, -0.18058051937758693, -0.11750326781010317, -0.19715222716331482, -0.09527581930160522, 0.09222403168678284, -0.6783132553100586, 0.17960068583488464, -0.7124848961830139, 0.057036519050598145, -0.07077501714229584, -0.05907583236694336, -0.10529065745853146, -0.36424091416935434, 0.9250981337132915,-0.020875878131579394,-0.6090240478515625,0.12994384765625,-0.7470703125
20230215-1532,2023-02-15 15:32:20Z,u02, 97,100,movements,el-ex, lt, nd,281210.43117825, -0.7637762215737351, -0.18175097154107145, -0.11836827075317852, -0.12617792189121246, -0.13744431734085083, 0.06072496250271797, -0.6802611947059631, 0.1807519793510437, -0.7103332281112671, 0.010629355907440186, -0.1004449874162674, -0.05672609806060791, -0.106018109769302, -0.36550450276587443, 0.9245158559822622,-0.02090106480398118,-0.62127685546875,0.10882568359375,-0.7715606689453125
20230215-1532,2023-02-15 15:32:20Z,u02, 98,100,movements,el-ex, lt, nd,281210.44120125, -0.767164219520703, -0.18150295164011926, -0.11917548568877617, -0.10688269883394241, -0.1592492163181305, 0.02944943495094776, -0.6826950311660767, 0.18050804734230042, -0.7080566883087158, -0.043058693408966064, -0.1261715143918991, -0.02798151969909668, -0.10608742998496412, -0.3670382792095998, 0.9238946564212402,-0.021141090824891587,-0.6696319580078125,0.0803070068359375,-0.767059326171875
20230215-1532,2023-02-15 15:32:20Z,u02, 99,100,movements,el-ex, lt, nd,281210.45122325, -0.7704438283336359, -0.1806131162024832, -0.12000366833023864, -0.09891212731599808, -0.15575487911701202, 0.022070348262786865, -0.6851250529289246, 0.1796327531337738, -0.7059289216995239, -0.07813471555709839, -0.1390901654958725, 0.00410085916519165, -0.1058655889785146, -0.3685485416249008, 0.9233099348993802,-0.021517857347350313,-0.7257537841796875,0.0543365478515625,-0.7360382080078125
20230215-1532,2023-02-15 15:32:20Z,u02, 100,100,movements,el-ex, lt, nd,281210.46124625, -0.7727110445557648, -0.17998110328248743, -0.12085216834899082, -0.12859967350959778, -0.17625775933265686, -0.015450873412191868, -0.6868029236793518, 0.17901098728179932, -0.7044549584388733, -0.07703667879104614, -0.159891739487648, 0.016771793365478516, -0.1057563485858756, -0.36957830121964363, 0.9229016431113896,-0.021909340629260553,-0.7632598876953125,0.0405426025390625,-0.7018280029296875
20230215-1532,2023-02-15 15:32:20Z,u02, 101,100,movements,el-ex, lt, nd,281210.47126925003, -0.7743540372378872, -0.1796176554998549, -0.12201406533697899, -0.14939577877521515, -0.15841031074523926, -0.03739691898226738, -0.6880048513412476, 0.17865338921546936, -0.7033720016479492, -0.07560586929321289, -0.16249434649944305, 0.013506889343261719, -0.1058225395525334, -0.3702912025373087, 0.9225957520929703,-0.0224275620049585,-0.7638397216796875,0.0191192626953125,-0.68768310546875
20230215-1532,2023-02-15 15:32:20Z,u02, 102,100,movements,el-ex, lt, nd,281210.48129125003, -0.774762630491103, -0.1794816706385534, -0.12312054034751266, -0.13645662367343903, -0.12273088097572327, -0.04918085038661957, -0.6883091926574707, 0.1785195916891098, -0.7031082510948181, -0.08413636684417725, -0.173453688621521, -0.01060640811920166, -0.10596962146257767, -0.37042722032892367, 0.9225116499398555,-0.02294219406541283,-0.76361083984375,0.0161590576171875,-0.6898651123046875
20230215-1532,2023-02-15 15:32:20Z,u02, 103,100,movements,el-ex, lt, nd,281210.49131425004, -0.7739432499112224, -0.17882258723876923, -0.12414332049376688, -0.139541894197464, -0.09060756117105484, -0.07323957979679108, -0.6878149509429932, 0.17787106335163116, -0.7037559747695923, -0.06053704023361206, -0.17452940344810486, -0.03064960241317749, -0.10584676884827764, -0.3700249784056028, 0.9226709731361996,-0.023582763288316114,-0.7724456787109375,0.00506591796875,-0.713714599609375
20230215-1532,2023-02-15 15:32:20Z,u02, 104,100,movements,el-ex, lt, nd,281210.50133725, -0.7725763045803491, -0.17720691400055194, -0.12526217854630786, -0.11029613763093948, -0.061157796531915665, -0.10303182899951935, -0.6870519518852234, 0.1762809157371521, -0.7049003839492798, -0.02928704023361206, -0.1522330939769745, -0.03486102819442749, -0.10529506828925501, -0.36940866641544906, 0.9229576714470009,-0.02447812559565684,-0.74835205078125,0.0033416748046875,-0.734405517578125
20230215-1532,2023-02-15 15:32:20Z,u02, 105,100,movements,el-ex, lt, nd,281210.51135925, -0.77190818778638, -0.17428650506131835, -0.126557697338298, -0.09096584469079971, -0.04484140872955322, -0.12602370977401733, -0.6869370341300964, 0.1734054982662201, -0.7057251930236816, -0.007078349590301514, -0.14145362377166748, -0.048028528690338135, -0.1041841197371945, -0.36916539008106486, 0.9231488831232015,-0.025665206061577527,-0.716339111328125,0.0240478515625,-0.7397613525390625
20230215-1532,2023-02-15 15:32:20Z,u02, 106,100,movements,el-ex, lt, nd,281210.52138225, -0.7726312807320104, -0.17053691603302049, -0.12811476025271717, -0.07286112010478973, -0.019909692928195, -0.1338721662759781, -0.687896192073822, 0.16971150040626526, -0.7056888937950134, -0.017258167266845703, -0.15205709636211395, -0.03768885135650635, -0.10275829477379597, -0.3695893579119578, 0.9230992324478086,-0.02705801008542084,-0.6940155029296875,0.031951904296875,-0.753753662109375
20230215-1532,2023-02-15 15:32:20Z,u02, 107,100,movements,el-ex, lt, nd,281210.53140425, -0.7741883833009178, -0.16657225095845624, -0.12970912462724166, -0.06427428871393204, 0.01889442838728428, -0.11519435048103333, -0.6894591450691223, 0.16580303013324738, -0.7050924301147461, -0.045617640018463135, -0.15690715610980988, -0.022141456604003906, -0.10125328504819756, -0.3704072826233726, 0.9228952653593423,-0.02846775859027042,-0.7051544189453125,0.0176544189453125,-0.743377685546875
20230215-1532,2023-02-15 15:32:20Z,u02, 108,100,movements,el-ex, lt, nd,281210.54142725, -0.775674755551536, -0.16244895343380591, -0.13125522332072564, -0.0830216184258461, 0.05169232189655304, -0.09665454179048538, -0.6909792423248291, 0.161735400557518, -0.7045489549636841, -0.05010956525802612, -0.1416701078414917, 0.002568364143371582, -0.09966748123093698, -0.37120333243205544, 0.9227029807803012,-0.029891385664313142,-0.735076904296875,0.0088958740234375,-0.72723388671875
20230215-1532,2023-02-15 15:32:20Z,u02, 109,100,movements,el-ex, lt, nd,281210.55145025003, -0.7769834104047929, -0.15867354419165508, -0.13288221975247044, -0.10871393233537674, 0.06128396466374397, -0.0956294909119606, -0.6923239231109619, 0.15800856053829193, -0.704074501991272, -0.03378075361251831, -0.14300918579101562, 0.0005680322647094727, -0.0982556782622582, -0.37189859078997595, 0.9225279219417288,-0.03129705311328948,-0.7410888671875,0.0200653076171875,-0.7019805908203125
20230215-1532,2023-02-15 15:32:20Z,u02, 110,100,movements,el-ex, lt, nd,281210.56147225003, -0.7782319141451474, -0.1542935538722433, -0.13465206125313045, -0.10951943695545197, 0.07521096616983414, -0.10235229879617691, -0.693681538105011, 0.15368208289146423, -0.7036957144737244, -0.03385740518569946, -0.15099655091762543, 0.0015014410018920898, -0.09659364010911953, -0.3725880078954954, 0.922369790819552,-0.032888910563919946,-0.726104736328125,0.0149993896484375,-0.7035064697265625
20230215-1532,2023-02-15 15:32:20Z,u02, 111,100,movements,el-ex, lt, nd,281210.57149525004, -0.7790340819144053, -0.1479373158117051, -0.13638684577882826, -0.11108139157295227, 0.06662173569202423, -0.10489135980606079, -0.6949180960655212, 0.14739829301834106, -0.7038199305534363, -0.03939574956893921, -0.14916832745075226, 0.01189488172531128, -0.09401164902032248, -0.37316465302757923, 0.9223308093712861,-0.034865825185191344,-0.7275390625,0.002685546875,-0.7021942138671875
20230215-1532,2023-02-15 15:32:20Z,u02, 112,100,movements,el-ex, lt, nd,281210.58151725004, -0.7787674299820075, -0.142515853750853, -0.13788469101088677, -0.08528703451156616, 0.04837242513895035, -0.12077737599611282, -0.6952815055847168, 0.1420339047908783, -0.7045636177062988, -0.025085866451263428, -0.153951033949852, -0.025310039520263672, -0.09179622646932621, -0.3732179395991665, 0.9224650390082179,-0.03660556921091348,-0.73431396484375,-0.00177001953125,-0.691925048828125
20230215-1532,2023-02-15 15:32:20Z,u02, 113,100,movements,el-ex, lt, nd,281210.59154025, -0.7773429304828299, -0.13788670913780046, -0.1392310128789225, -0.09955251961946487, 0.026160065084695816, -0.11539912223815918, -0.6947308778762817, 0.1374501883983612, -0.7060143947601318, -0.025819599628448486, -0.1557607501745224, -0.006647348403930664, -0.08989368357557133, -0.37270888617506054, 0.922794473842029,-0.03817536922693112,-0.720367431640625,-0.0119171142578125,-0.7298736572265625
20230215-1532,2023-02-15 15:32:20Z,u02, 114,100,movements,el-ex, lt, nd,281210.60156225, -0.7771837965550222, -0.1321761399939307, -0.14073660650771058, -0.11447960138320923, -0.01091486681252718, -0.107066810131073, -0.6951576471328735, 0.1317916065454483, -0.7066730260848999, -0.01031714677810669, -0.147553950548172, 0.020866751670837402, -0.08754640065750299, -0.37282583050547685, 0.9228971726237909,-0.03996643657526636,-0.720550537109375,-0.018310546875,-0.7126617431640625
20230215-1532,2023-02-15 15:32:20Z,u02, 115,100,movements,el-ex, lt, nd,281210.61158525, -0.77995960190211, -0.1250373743473926, -0.14262916370535064, -0.1274486631155014, -0.026130303740501404, -0.09123804420232773, -0.6977604031562805, 0.12471181899309158, -0.7053915858268738, -0.015587866306304932, -0.146776020526886, 0.036858201026916504, -0.08467578900399236, -0.3743450336433624, 0.9224558002488142,-0.04208354131169191,-0.705474853515625,-0.0157623291015625,-0.6858062744140625
20230215-1532,2023-02-15 15:32:20Z,u02, 116,100,movements,el-ex, lt, nd,281210.62160825, -0.7851365449625063, -0.11823862333721621, -0.14473329468350365, -0.1498650759458542, -0.0566842183470726, -0.07322514057159424, -0.7019860148429871, 0.11796331405639648, -0.7023534178733826, -0.01685541868209839, -0.14205695688724518, 0.05048263072967529, -0.08205967427872692, -0.37694761074781075, 0.921535802613728,-0.04414213290856503,-0.713348388671875,-0.022064208984375,-0.6685333251953125
20230215-1532,2023-02-15 15:32:20Z,u02, 117,100,movements,el-ex, lt, nd,281210.63163025, -0.7877297186759954, -0.11449010973480112, -0.1466118296299312, -0.18395887315273285, -0.10156726837158203, -0.06804449111223221, -0.7041133642196655, 0.11424015462398529, -0.7008376717567444, -0.0013003349304199219, -0.12180852890014648, 0.06579732894897461, -0.08075187396549033, -0.3782331338728479, 0.9210521705510811,-0.04562427683340051,-0.718841552734375,-0.0240936279296875,-0.6518707275390625
20230215-1532,2023-02-15 15:32:20Z,u02, 118,100,movements,el-ex, lt, nd,281210.64165325003, -0.7902912584825329, -0.11204674635354088, -0.1485904488937083, -0.20982857048511505, -0.14713475108146667, -0.05312240496277809, -0.7061025500297546, 0.11181244254112244, -0.6992260813713074, -0.009076833724975586, -0.10447297990322113, 0.0713115930557251, -0.08006490814498674, -0.37944245245748254, 0.9205502994690457,-0.04690448395165728,-0.705413818359375,-0.007568359375,-0.635040283203125
20230215-1532,2023-02-15 15:32:20Z,u02, 119,100,movements,el-ex, lt, nd,281210.65167625004, -0.7934908640378922, -0.11011622990017186, -0.15064052191142846, -0.22798439860343933, -0.15160779654979706, -0.02874915674328804, -0.7084887027740479, 0.10989382863044739, -0.6971133351325989, -0.0351177453994751, -0.08999636769294739, 0.0512697696685791, -0.07964541815505312, -0.38091984291595987, 0.9199149735980898,-0.048094367682069344,-0.715179443359375,0.0073394775390625,-0.6279144287109375
20230215-1532,2023-02-15 15:32:20Z,u02, 120,100,movements,el-ex, lt, nd,281210.66169825004, -0.7943564384181484, -0.10830414422847787, -0.1523180488675004, -0.23863139748573303, -0.17278020083904266, -0.0014198774006217718, -0.709232747554779, 0.1080925390124321, -0.6966382265090942, -0.054957807064056396, -0.0927574634552002, 0.05023014545440674, -0.07915563938009028, -0.3813335289379247, 0.9197282322496148,-0.049183735640987825,-0.7436065673828125,0.0198974609375,-0.645843505859375
20230215-1532,2023-02-15 15:32:20Z,u02, 121,100,movements,el-ex, lt, nd,281210.67172125, -0.7961260604042837, -0.106022445800473, -0.15404714340531417, -0.26123976707458496, -0.18387892842292786, 0.010629062540829182, -0.7106388211250305, 0.10582392662763596, -0.6955527663230896, -0.040902137756347656, -0.07812923938035965, 0.0370597243309021, -0.07848428252041488, -0.3821829844976883, 0.9193697699325822,-0.05035313773215099,-0.764190673828125,0.0153350830078125,-0.6464080810546875
20230215-1532,2023-02-15 15:32:20Z,u02, 122,100,movements,el-ex, lt, nd,281210.68174325, -0.7982919525396353, -0.10304657673013644, -0.15574821326661092, -0.22906504571437836, -0.1416158825159073, 0.01652364991605282, -0.7123660445213318, 0.10286430269479752, -0.6942287087440491, -0.04839128255844116, -0.05383782088756561, 0.013213634490966797, -0.07750203530435458, -0.38324805985210464, 0.9189388283727057,-0.051630990470836836,-0.7515411376953125,0.0276947021484375,-0.6584930419921875
20230215-1532,2023-02-15 15:32:20Z,u02, 123,100,movements,el-ex, lt, nd,281210.69176625, -0.8019216432934334, -0.09923307426847976, -0.15758265939714897, -0.2565786838531494, -0.1292625516653061, 0.018191853538155556, -0.7151579260826111, 0.09907029569149017, -0.691906213760376, -0.05020761489868164, -0.03969834744930267, 0.015438258647918701, -0.07620375683705242, -0.3850193310054581, 0.9182241091200752,-0.05308040026889117,-0.7607574462890625,0.0490264892578125,-0.6810150146484375
20230215-1532,2023-02-15 15:32:20Z,u02, 124,100,movements,el-ex, lt, nd,281210.70178925, -0.8065235434371496, -0.09577300123805128, -0.15966656425951953, -0.2518163323402405, -0.08637100458145142, 0.010514440014958382, -0.7185775637626648, 0.09562665224075317, -0.688840925693512, -0.040852248668670654, -0.03253157436847687, -0.011049270629882812, -0.07514734655874375, -0.38721108310208174, 0.9173033962302903,-0.05454282995107065,-0.7653656005859375,0.0593719482421875,-0.6764678955078125
20230215-1532,2023-02-15 15:32:20Z,u02, 125,100,movements,el-ex, lt, nd,281210.71181125, -0.8093026411576182, -0.09438918362924542, -0.16134107689521826, -0.17347703874111176, -0.020252974703907967, 0.028700102120637894, -0.7205842733383179, 0.09424909204244614, -0.6869319081306458, -0.06683015823364258, -0.03332075476646423, -0.06555533409118652, -0.07491609547277038, -0.3884863244161866, 0.9167267809316565,-0.05547955041600348,-0.759429931640625,0.0630950927734375,-0.69989013671875
20230215-1532,2023-02-15 15:32:20Z,u02, 126,100,movements,el-ex, lt, nd,281210.721833875, -0.8110190442338141, -0.09397770620671543, -0.1625023245656759, -0.12401454895734787, 0.03811206668615341, -0.006407365668565035, -0.7217903137207031, 0.09383943676948547, -0.6857207417488098, -0.040126681327819824, -0.015287190675735474, -0.10424208641052246, -0.07500177715798372, -0.3892484591681539, 0.9163630138064858,-0.05602883325970637,-0.78741455078125,0.0609283447265625,-0.7524871826171875
20230215-1532,2023-02-15 15:32:21Z,u02, 127,100,movements,el-ex, lt, nd,281210.731855875, -0.8118915100470564, -0.0936483752674099, -0.1633562904809113, -0.05247671902179718, 0.09065143764019012, -0.02393469400703907, -0.7224106788635254, 0.09351155161857605, -0.685111939907074, -0.008576750755310059, 0.016168609261512756, -0.1078263521194458, -0.0750422189152822, -0.38963147859636127, 0.9161708484417498,-0.05645261853308776,-0.7619171142578125,0.07855224609375,-0.7899627685546875
20230215-1532,2023-02-15 15:32:21Z,u02, 128,100,movements,el-ex, lt, nd,281210.741878875, -0.8119705129060221, -0.09284490760063195, -0.16406039867714842, -0.027058860287070274, 0.1561281830072403, -0.07222776859998703, -0.7225190997123718, 0.09271157532930374, -0.6851063370704651, -0.001556098461151123, -0.01939310133457184, -0.1256541609764099, -0.07481479741081905, -0.3896788046846224, 0.9161396752099951,-0.05693154555497517,-0.730987548828125,0.10968017578125,-0.792938232421875
20230215-1532,2023-02-15 15:32:21Z,u02, 129,100,movements,el-ex, lt, nd,281210.751901875, -0.8112451014909295, -0.0919081640853613, -0.16501192230506545, -0.041217025369405746, 0.1686794012784958, -0.11325616389513016, -0.7220845818519592, 0.09177882224321365, -0.6856898069381714, 0.018425583839416504, -0.0024996548891067505, -0.07274836301803589, -0.07455162802063833, -0.3893547938551358, 0.9162583480416044,-0.05758023032330542,-0.7240753173828125,0.0733184814453125,-0.810760498046875
20230215-1532,2023-02-15 15:32:21Z,u02, 130,100,movements,el-ex, lt, nd,281210.761923875, -0.8100501181571255, -0.09077271332226486, -0.16616632208932902, -0.00408890750259161, 0.21560029685497284, -0.14928244054317474, -0.7213396430015564, 0.0906481072306633, -0.6866235733032227, 0.014796793460845947, 0.014973223209381104, -0.05965334177017212, -0.07422302018403992, -0.38881763682744397, 0.9164625535301849,-0.0583784333365473,-0.7036590576171875,0.0892791748046875,-0.7584381103515625
20230215-1532,2023-02-15 15:32:21Z,u02, 131,100,movements,el-ex, lt, nd,281210.77194687503, -0.8084343834207154, -0.08944394597773249, -0.16741034946796948, -0.004345103166997433, 0.2864275872707367, -0.17008918523788452, -0.7203158140182495, 0.08932473510503769, -0.6878708004951477, -0.008062362670898438, 0.013824686408042908, -0.02881932258605957, -0.07381010158110908, -0.3880936490510076, 0.9167454967474354,-0.05927103520255634,-0.70654296875,0.105621337890625,-0.74627685546875
20230215-1532,2023-02-15 15:32:21Z,u02, 132,100,movements,el-ex, lt, nd,281210.78196887503, -0.8059383533792838, -0.08798929280198202, -0.1686700512132257, -0.002136525698006153, 0.30628466606140137, -0.1720363050699234, -0.7186896204948425, 0.08787579834461212, -0.6897557973861694, 0.015488386154174805, 0.03884843736886978, 0.013821959495544434, -0.0733148093603013, -0.3869716214776413, 0.9171971210956044,-0.060227238949126835,-0.7283782958984375,0.1031494140625,-0.7166900634765625
20230215-1532,2023-02-15 15:32:21Z,u02, 133,100,movements,el-ex, lt, nd,281210.79199187504, -0.8028170885571445, -0.08632973898667946, -0.16969096944420115, 0.045251231640577316, 0.337246835231781, -0.15842169523239136, -0.7166370749473572, 0.08622254431247711, -0.6920959949493408, 0.04416710138320923, 0.05867490917444229, -0.00669550895690918, -0.07265837598800655, -0.38558107499454153, 0.9177746304445512,-0.06113562860037234,-0.7032012939453125,0.1267242431640625,-0.675933837890625
20230215-1532,2023-02-15 15:32:21Z,u02, 134,100,movements,el-ex, lt, nd,281210.802014875, -0.7983742506452981, -0.08459398427882751, -0.17026859598743882, 0.05197982117533684, 0.3485511541366577, -0.13671980798244476, -0.7136613130569458, 0.08449312299489975, -0.695376455783844, 0.051994502544403076, 0.07543423771858215, -0.03425312042236328, -0.07183835766981397, -0.3836026777333143, 0.918616605583577,-0.061900885160234724,-0.6724700927734375,0.1448974609375,-0.69879150390625
20230215-1532,2023-02-15 15:32:21Z,u02, 135,100,movements,el-ex, lt, nd,281210.812036875, -0.7949983410257189, -0.08329849216496903, -0.17065093706452475, 0.09044519066810608, 0.3352814316749573, -0.10803462564945221, -0.7113872766494751, 0.08320219814777374, -0.6978578567504883, 0.08905762434005737, 0.10713592916727066, -0.058367788791656494, -0.07121314967437375, -0.3820991506510721, 0.9192546136461566,-0.06244954589907956,-0.6616668701171875,0.1599273681640625,-0.7296295166015625
20230215-1532,2023-02-15 15:32:21Z,u02, 136,100,movements,el-ex, lt, nd,281210.822059875, -0.7915709359990574, -0.08187047691659094, -0.1704954008836233, 0.13096563518047333, 0.3534979820251465, -0.07758884131908417, -0.7090750336647034, 0.08177904784679413, -0.7003746628761292, 0.10343855619430542, 0.10202832520008087, -0.10046768188476562, -0.07042155531990509, -0.3805961898142395, 0.9199164635676924,-0.06277630973531059,-0.6223297119140625,0.190338134765625,-0.7562255859375
20230215-1532,2023-02-15 15:32:21Z,u02, 137,100,movements,el-ex, lt, nd,281210.832081875, -0.7880009937111306, -0.08042567925527482, -0.1699224012123355, 0.1589605212211609, 0.351589560508728, -0.04925413802266121, -0.7066532373428345, 0.08033900707960129, -0.7029841542243958, 0.09500479698181152, 0.12121433019638062, -0.09595078229904175, -0.06953767807681806, -0.37904146234669184, 0.9206157452055255,-0.06291654457251541,-0.6056365966796875,0.183807373046875,-0.80084228515625
20230215-1532,2023-02-15 15:32:21Z,u02, 138,100,movements,el-ex, lt, nd,281210.842104875, -0.7843937390775433, -0.07890697733956446, -0.16890499217626745, 0.20413655042648315, 0.35086625814437866, -0.029779374599456787, -0.7041981816291809, 0.07882511615753174, -0.7056142091751099, 0.08737695217132568, 0.13748346269130707, -0.08382976055145264, -0.06853443508657037, -0.37748631764756657, 0.9213332658656747,-0.06286451718928583,-0.6116485595703125,0.2015533447265625,-0.7989349365234375
20230215-1532,2023-02-15 15:32:21Z,u02, 139,100,movements,el-ex, lt, nd,281210.852127875, -0.7807911398032333, -0.0774080210514998, -0.1676996641765355, 0.1687798947095871, 0.34584060311317444, -0.014607876539230347, -0.7017339468002319, 0.07733073830604553, -0.7082297801971436, 0.062131404876708984, 0.13609394431114197, -0.05065089464187622, -0.06750537583507037, -0.375936358552441, 0.9220527534800123,-0.06271845603374678,-0.6168212890625,0.21630859375,-0.7894439697265625
20230215-1532,2023-02-15 15:32:21Z,u02, 140,100,movements,el-ex, lt, nd,281210.862149875, -0.7773959483334016, -0.07630060355809695, -0.16663377647456845, 0.1444057673215866, 0.31054145097732544, -0.002584211528301239, -0.6993849277496338, 0.07622659206390381, -0.7106687426567078, 0.04258573055267334, 0.1372591257095337, -0.009332478046417236, -0.06668971610187123, -0.3744570905604689, 0.9227249746144164,-0.06255181637305689,-0.6396026611328125,0.2134246826171875,-0.758880615234375
20230215-1532,2023-02-15 15:32:21Z,u02, 141,100,movements,el-ex, lt, nd,281210.87217287504, -0.7744425831928486, -0.07540917227200689, -0.16577657283633346, 0.11524815857410431, 0.26164156198501587, -0.0018481137230992317, -0.6973302960395813, 0.0753377228975296, -0.7127795219421387, 0.02460092306137085, 0.1235453337430954, -0.0024457573890686035, -0.06602687522116758, -0.37316310359607585, 0.9233054642069012,-0.06242340936204404,-0.65679931640625,0.2134857177734375,-0.720001220703125
20230215-1532,2023-02-15 15:32:21Z,u02, 142,100,movements,el-ex, lt, nd,281210.88219487504, -0.7720658997994925, -0.07451774878677891, -0.16497461159466864, 0.13219474256038666, 0.20020855963230133, -0.01672828570008278, -0.6956808567047119, 0.07444880157709122, -0.7144826054573059, 0.005129218101501465, 0.10475040227174759, -0.005533874034881592, -0.06539275632974549, -0.3721323307294872, 0.9237747911455225,-0.062299822874849385,-0.6727294921875,0.198883056640625,-0.7152252197265625
20230215-1532,2023-02-15 15:32:21Z,u02, 143,100,movements,el-ex, lt, nd,281210.892217875, -0.7702853076977912, -0.07340691852542643, -0.1642565880869247, 0.1306397169828415, 0.14269866049289703, -0.03983120992779732, -0.6944646835327148, 0.0733410120010376, -0.7157791256904602, -0.01145249605178833, 0.0908893272280693, 0.003971874713897705, -0.06469194729841572, -0.3713830705866782, 0.92412991559325,-0.06223562868699712,-0.6905517578125,0.17919921875,-0.7200164794921875
20230215-1532,2023-02-15 15:32:21Z,u02, 144,100,movements,el-ex, lt, nd,281210.902240875, -0.7691613829006522, -0.07213687104243498, -0.16368353984389084, 0.1350044459104538, 0.07896282523870468, -0.06279048323631287, -0.6937239766120911, 0.07207432389259338, -0.7166255712509155, 0.00016635656356811523, 0.09053858369588852, 0.008373558521270752, -0.06396512829540472, -0.37093892660541783, 0.9243581417614971,-0.062246163817258615,-0.7059173583984375,0.1642303466796875,-0.7118072509765625
20230215-1532,2023-02-15 15:32:21Z,u02, 145,100,movements,el-ex, lt, nd,281210.912262875, -0.7686303171580056, -0.07081468189816867, -0.16335586417897477, 0.12072858214378357, 0.017853666096925735, -0.08092527091503143, -0.6934089660644531, 0.07075551152229309, -0.7170617580413818, 0.021137356758117676, 0.10058542340993881, 0.017766714096069336, -0.06327814754835727, -0.370762735290976, 0.9244684103457887,-0.062360347692093684,-0.6935577392578125,0.1626129150390625,-0.708251953125
20230215-1532,2023-02-15 15:32:21Z,u02, 146,100,movements,el-ex, lt, nd,281210.922285875, -0.7688079752136695, -0.06931088288687655, -0.16320971131143644, 0.12049990892410278, -0.05230038985610008, -0.11406461894512177, -0.6936095356941223, 0.06925540417432785, -0.7170141935348511, 0.06505435705184937, 0.10290950536727905, 0.00444406270980835, -0.06256310792052606, -0.370916098041245, 0.9244414094430119,-0.0625700182013552,-0.672271728515625,0.1713409423828125,-0.6992950439453125
20230215-1532,2023-02-15 15:32:21Z,u02, 147,100,movements,el-ex, lt, nd,281210.932307875, -0.7695714781608604, -0.06768047755464732, -0.16327300195542777, 0.1052091121673584, -0.09683296829462051, -0.12526747584342957, -0.6942344307899475, 0.06762881577014923, -0.7165645956993103, 0.07573479413986206, 0.11289791762828827, 0.0023921728134155273, -0.06184695815993764, -0.3713390227840457, 0.9242985967234246,-0.06288228692381585,-0.6285552978515625,0.1721649169921875,-0.7125701904296875
20230215-1532,2023-02-15 15:32:21Z,u02, 148,100,movements,el-ex, lt, nd,281210.942330875, -0.7706946012135553, -0.06617678399832591, -0.16338535424324985, 0.10658343136310577, -0.1264537125825882, -0.10497686266899109, -0.6951088309288025, 0.06612849235534668, -0.7158565521240234, 0.07633453607559204, 0.12591862678527832, 0.0047664642333984375, -0.06120992611184272, -0.3719207938963998, 0.9240865234120548,-0.06318286568436973,-0.618499755859375,0.1805267333984375,-0.71417236328125
20230215-1532,2023-02-15 15:32:21Z,u02, 149,100,movements,el-ex, lt, nd,281210.95235387504, -0.7720777702459705, -0.064880927784517, -0.16341070222311588, 0.0734073668718338, -0.1497233510017395, -0.08372404426336288, -0.6961575150489807, 0.06483541429042816, -0.71495521068573, 0.08516526222229004, 0.13308632373809814, -0.0035506486892700195, -0.0606610567793928, -0.3726159330364597, 0.9238280180869017,-0.0633968463499465,-0.6187744140625,0.192047119140625,-0.711090087890625
20230215-1532,2023-02-15 15:32:21Z,u02, 150,100,movements,el-ex, lt, nd,281210.96237587504, -0.7737174398535441, -0.06413362229298265, -0.1634341111780909, 0.04205775633454323, -0.17545028030872345, -0.033304572105407715, -0.6973626017570496, 0.06408966332674026, -0.713847279548645, 0.07761168479919434, 0.14754973351955414, 0.0077162981033325195, -0.06037303598450944, -0.3734052177055907, 0.9235212330040381,-0.0634992396728431,-0.610992431640625,0.1979217529296875,-0.718505859375
20230215-1532,2023-02-15 15:32:21Z,u02, 151,100,movements,el-ex, lt, nd,281210.972398875, -0.7754800110911708, -0.06375683125001536, -0.1631705385990112, 0.060645557940006256, -0.17683298885822296, 0.00842183455824852, -0.698636531829834, 0.06371364742517471, -0.7126342058181763, 0.07134783267974854, 0.1391519457101822, -0.027951180934906006, -0.060206105742590776, -0.37424340798189626, 0.9231998447865049,-0.06339575856251893,-0.6197509765625,0.211639404296875,-0.7061309814453125
20230215-1532,2023-02-15 15:32:21Z,u02, 152,100,movements,el-ex, lt, nd,281210.982420875, -0.7777492760122939, -0.06718968695198055, -0.16263155834907517, 0.047480713576078415, -0.16914232075214386, 0.03902065008878708, -0.7000942826271057, 0.0671391412615776, -0.7108869552612305, 0.05390000343322754, 0.1361384391784668, -0.03967767953872681, -0.061757309086955335, -0.3751567298918281, 0.9227926258936991,-0.06242622199265144,-0.627288818359375,0.2028656005859375,-0.7405853271484375
20230215-1532,2023-02-15 15:32:21Z,u02, 153,100,movements,el-ex, lt, nd,281210.992443875, -0.7792255632703083, -0.07137865781631601, -0.16213126377918938, 0.0081572774797678, -0.1688578873872757, 0.04161803051829338, -0.7009392380714417, 0.07131806015968323, -0.7096463441848755, 0.0369378924369812, 0.11628873646259308, -0.03873628377914429, -0.06363710908972989, -0.37566894236179305, 0.9225286369513152,-0.061351956340711195,-0.6461944580078125,0.203277587890625,-0.7505645751953125
20230215-1532,2023-02-15 15:32:21Z,u02, 154,100,movements,el-ex, lt, nd,281211.002466875, -0.7780463719289221, -0.0751735197361976, -0.16175312054449595, -0.01648729294538498, -0.15629708766937256, -0.0016636895015835762, -0.6999069452285767, 0.07510273903608322, -0.7102744579315186, 0.0075852274894714355, 0.05580241233110428, -0.048423051834106445, -0.06527661669567293, -0.37496897523468375, 0.9227554922176643,-0.06049297148616954,-0.66400146484375,0.1876068115234375,-0.748382568359375
20230215-1532,2023-02-15 15:32:21Z,u02, 155,100,movements,el-ex, lt, nd,281211.012488875, -0.777379320665696, -0.07769407215960314, -0.1620915412036332, -0.050043653696775436, -0.11437920480966568, -0.0516970269382, -0.6992980241775513, 0.07761593163013458, -0.7106040120124817, -0.046139538288116455, 0.0059411972761154175, -0.049726247787475586, -0.06647993754319036, -0.3745375866282043, 0.9228645687096719,-0.06019159178142339,-0.69232177734375,0.1309051513671875,-0.758697509765625
20230215-1532,2023-02-15 15:32:21Z,u02, 156,100,movements,el-ex, lt, nd,281211.022511875, -0.77728957007423, -0.0790680999077066, -0.16282369353745388, -0.0199588555842638, -0.080237478017807, -0.10667940229177475, -0.6991587281227112, 0.07898574322462082, -0.7105900645256042, -0.08422738313674927, -0.037359774112701416, -0.04677993059158325, -0.06724669165127208, -0.37441000288540127, 0.9228555088016304,-0.060271119266651664,-0.7454376220703125,0.08355712890625,-0.7603302001953125
20230215-1532,2023-02-15 15:32:21Z,u02, 157,100,movements,el-ex, lt, nd,281211.032533875, -0.7769884684542745, -0.07928721400184584, -0.16357888575513774, 0.05062023922801018, -0.04043547436594963, -0.1546328216791153, -0.6989325881004333, 0.07920416444540024, -0.7107881903648376, -0.0833854079246521, -0.05442390590906143, -0.040920794010162354, -0.06747978305397874, -0.374235748713398, 0.9228883509540183,-0.060588070671340526,-0.78338623046875,0.0416259765625,-0.7573699951171875
20230215-1532,2023-02-15 15:32:21Z,u02, 158,100,movements,el-ex, lt, nd,281211.04255687504, -0.7767054139481275, -0.07863959324580595, -0.16416284529141145, 0.12113127112388611, -0.020972292870283127, -0.16950273513793945, -0.6987671852111816, 0.07855856418609619, -0.7110224366188049, -0.08101785182952881, -0.03916037082672119, 0.011544227600097656, -0.06728237248408815, -0.37411478109527974, 0.9229253654312359,-0.06099017476136753,-0.782318115234375,0.0247802734375,-0.751708984375
20230215-1532,2023-02-15 15:32:21Z,u02, 159,100,movements,el-ex, lt, nd,281211.05257987505, -0.7769052824208459, -0.07724502714234219, -0.16353259375237864, 0.2698635160923004, -0.1591048687696457, -0.05434711277484894, -0.6989853978157043, 0.07716823369264603, -0.7109601497650146, -0.055393755435943604, -0.026127584278583527, 0.06542181968688965, -0.0665286941451934, -0.3742911214349842, 0.9229106430873156,-0.06095769396435281,-0.77978515625,0.039398193359375,-0.6994781494140625
20230215-1532,2023-02-15 15:32:21Z,u02, 160,100,movements,el-ex, lt, nd,281211.062601875, -0.7767959212028789, -0.07631477878135322, -0.16316493479752564, 0.06726106256246567, 0.021327491849660873, -0.17487579584121704, -0.6989576816558838, 0.07624072581529617, -0.7110875248908997, -0.0075852274894714355, 0.018226437270641327, 0.07810711860656738, -0.06602838023497598, -0.37429466791588206, 0.9229444389192761,-0.06096844515693756,-0.7543792724609375,0.0510406494140625,-0.645538330078125
20230215-1532,2023-02-15 15:32:21Z,u02, 161,100,movements,el-ex, lt, nd,281211.072624875, -0.7766289329209972, -0.07547690670733273, -0.16428125251783582, -0.04792092368006706, -0.043887730687856674, -0.17177186906337738, -0.6988834142684937, 0.07540526241064072, -0.7112495303153992, 0.027573108673095703, -0.09701172262430191, 0.01142042875289917, -0.06584648922684573, -0.37421849318625855, 0.9229431276096252,-0.061648295700031365,-0.70654296875,0.0944671630859375,-0.6329803466796875
20230215-1532,2023-02-15 15:32:21Z,u02, 162,100,movements,el-ex, lt, nd,281211.082646875, -0.7771470786801721, -0.0754619199680739, -0.1661204562891227, -0.162273570895195, -0.06520260870456696, -0.12323437631130219, -0.6992526650428772, 0.07539032399654388, -0.7108880877494812, 0.09978073835372925, -0.10425996035337448, 0.006817042827606201, -0.06619988515655852, -0.3743975455278553, 0.9227891092090804,-0.0624827085221063,-0.6713104248046875,-0.0216064453125,-0.6998291015625
20230215-1532,2023-02-15 15:32:21Z,u02, 163,100,movements,el-ex, lt, nd,281211.092669875, -0.777944792001975, -0.07584404743886197, -0.1678923172326044, -0.14577661454677582, -0.06819413602352142, -0.08011221885681152, -0.6997992992401123, 0.07577135413885117, -0.7103095650672913, 0.13823014497756958, -0.019420653581619263, -0.007311344146728516, -0.06673259419966039, -0.37468919103593035, 0.9225835327958202,-0.06320095562074982,-0.5994720458984375,-0.02886962890625,-0.704071044921875
20230215-1532,2023-02-15 15:32:21Z,u02, 164,100,movements,el-ex, lt, nd,281211.102692875, -0.7791334761668739, -0.07647131366920257, -0.16960580940250308, -0.19706971943378448, -0.11380556225776672, -0.03817299008369446, -0.700609564781189, 0.07639680057764053, -0.7094432711601257, 0.16214227676391602, -0.04269014298915863, 0.00016891956329345703, -0.06738010178314194, -0.3751510375973991, 0.9223052983270681,-0.06383195269808369,-0.5615692138671875,0.0563507080078125,-0.717620849609375
20230215-1532,2023-02-15 15:32:21Z,u02, 165,100,movements,el-ex, lt, nd,281211.112714875, -0.7804131156835025, -0.0773391473755853, -0.1708204948531158, -0.11011485010385513, -0.08659844100475311, 0.01897924393415451, -0.7014699578285217, 0.07726207375526428, -0.7084987759590149, 0.1324392557144165, -0.10321727395057678, -0.05373883247375488, -0.06804812081154614, -0.37565952479051423, 0.9220248584898666,-0.06418318048900401,-0.5384674072265625,0.0337066650390625,-0.7092742919921875
20230215-1532,2023-02-15 15:32:21Z,u02, 166,100,movements,el-ex, lt, nd,281211.12273787503, -0.7815827362853704, -0.07805135547484748, -0.1713948402405668, -0.09989597648382187, -0.06632459163665771, 0.0466323122382164, -0.7022591829299927, 0.07797212898731232, -0.7076385617256165, 0.05818581581115723, -0.12287876009941101, -0.01208806037902832, -0.0685210240430774, -0.3761456900467881, 0.9217854266485772,-0.06427194669393833,-0.56903076171875,-0.0259552001953125,-0.762237548828125
20230215-1532,2023-02-15 15:32:21Z,u02, 167,100,movements,el-ex, lt, nd,281211.13275987504, -0.7825374900415785, -0.07891982396689706, -0.17127283188579098, -0.010669958777725697, -0.005640210118144751, 0.1096152737736702, -0.7028864622116089, 0.07883792370557785, -0.7069194912910461, 0.030477464199066162, -0.08506351709365845, 0.018503904342651367, -0.06892781082173821, -0.37654909425815025, 0.9216081028464418,-0.06401679411861394,-0.644073486328125,-0.0449066162109375,-0.7197265625
20230215-1532,2023-02-15 15:32:21Z,u02, 168,100,movements,el-ex, lt, nd,281211.14278287505, -0.7825166479810598, -0.07979422798823808, -0.17021569916337462, 0.05082033574581146, 0.05639226734638214, 0.1550939679145813, -0.7028228640556335, 0.07970958203077316, -0.7068849802017212, -0.006420791149139404, -0.12112192809581757, 0.019980013370513916, -0.06912992270387416, -0.37653493815300554, 0.921643984846994,-0.0633630131558057,-0.6724090576171875,-0.0062255859375,-0.68841552734375
20230215-1532,2023-02-15 15:32:21Z,u02, 169,100,movements,el-ex, lt, nd,281211.152805875, -0.7815856447105204, -0.08005299318360047, -0.16852435869296725, 0.07027073204517365, 0.08164089918136597, 0.19442033767700195, -0.7021499276161194, 0.07996752113103867, -0.7075243592262268, -0.0011428594589233398, -0.11538317799568176, 0.03531360626220703, -0.06890127928723253, -0.37615215714469413, 0.9218717937912466,-0.06256613635634095,-0.7092437744140625,-0.041412353515625,-0.6869049072265625
20230215-1532,2023-02-15 15:32:21Z,u02, 170,100,movements,el-ex, lt, nd,281211.162827875, -0.7798849325581969, -0.08025383545659999, -0.1660349483554859, 0.15223918855190277, 0.11727719008922577, 0.24899430572986603, -0.7009342908859253, 0.08016771823167801, -0.7087060213088989, 0.011832237243652344, -0.10243028402328491, 0.04182058572769165, -0.06847313912889018, -0.3754442924216394, 0.9222679858480004,-0.0614384798773395,-0.7032928466796875,-0.0354156494140625,-0.672210693359375
20230215-1532,2023-02-15 15:32:21Z,u02, 171,100,movements,el-ex, lt, nd,281211.172850875, -0.7775280935750749, -0.0808792240090663, -0.16293239845629723, 0.19587241113185883, 0.14525076746940613, 0.2861059904098511, -0.6992267370223999, 0.08079107850790024, -0.7103201746940613, 0.023064076900482178, -0.07703742384910583, 0.038353562355041504, -0.06810765834353796, -0.37443458979168404, 0.922802103045633,-0.05996869275692381,-0.6891021728515625,-0.0222625732421875,-0.6668853759765625
20230215-1532,2023-02-15 15:32:21Z,u02, 172,100,movements,el-ex, lt, nd,281211.182872875, -0.7744324842832722, -0.08079233207219357, -0.15902828948448505, 0.28401798009872437, 0.20614181458950043, 0.2721807062625885, -0.6970294117927551, 0.080704465508461, -0.7124863266944885, 0.0525287389755249, -0.056763432919979095, 0.02121734619140625, -0.06724648300263018, -0.3731417353154459, 0.9234963779146171,-0.05828790521227643,-0.6761627197265625,0.003753662109375,-0.671966552734375
20230215-1532,2023-02-15 15:32:21Z,u02, 173,100,movements,el-ex, lt, nd,281211.192895875, -0.7707847109239507, -0.08000418478220597, -0.15509612405340917, 0.24871192872524261, 0.2067793756723404, 0.2702632248401642, -0.6944698691368103, 0.07991886883974075, -0.7150695323944092, 0.036739885807037354, -0.03424931317567825, 0.05828547477722168, -0.06604630626217144, -0.37162226399462206, 0.9242915634382558,-0.056742055130021174,-0.644500732421875,0.0239410400390625,-0.6912689208984375
20230215-1532,2023-02-15 15:32:21Z,u02, 174,100,movements,el-ex, lt, nd,281211.20291887503, -0.7679033635148658, -0.07903759878377617, -0.15160895321684398, 0.2301034778356552, 0.23499609529972076, 0.24441081285476685, -0.6924599409103394, 0.07895533740520477, -0.7171227931976318, 0.037659645080566406, -0.04155604541301727, 0.057744741439819336, -0.06487283985718585, -0.3704458173872246, 0.924927723779614,-0.055406270428875484,-0.6577301025390625,0.0456695556640625,-0.6567840576171875
20230215-1532,2023-02-15 15:32:21Z,u02, 175,100,movements,el-ex, lt, nd,281211.21294087503, -0.7651506407591162, -0.07819023790685918, -0.14826658216777805, 0.23775367438793182, 0.27593207359313965, 0.21635015308856964, -0.6905294060707092, 0.07811059057712555, -0.7190742492675781, 0.01624363660812378, -0.07687462866306305, 0.005512237548828125, -0.06378825887469551, -0.3693154749694903, 0.9255319360331515,-0.05410760451699614,-0.6548004150390625,0.0373992919921875,-0.6593780517578125
20230215-1532,2023-02-15 15:32:21Z,u02, 176,100,movements,el-ex, lt, nd,281211.22296387504, -0.7616676244657629, -0.07763329180223909, -0.145010071114238, 0.2828274965286255, 0.3678146004676819, 0.1759701669216156, -0.6880505681037903, 0.0775553360581398, -0.7215064167976379, 0.023423612117767334, -0.0422159880399704, 0.01865607500076294, -0.06283778088158268, -0.36782905442065394, 0.9262632849833496,-0.05281437752879932,-0.674285888671875,0.0012359619140625,-0.71356201171875
20230215-1532,2023-02-15 15:32:21Z,u02, 177,100,movements,el-ex, lt, nd,281211.23298587505, -0.7575794048308707, -0.07688404800205062, -0.14189075058438114, 0.25181952118873596, 0.40315768122673035, 0.1686089187860489, -0.6851348876953125, 0.07680832594633102, -0.7243552803993225, 0.01345837116241455, -0.003733985126018524, 0.044332027435302734, -0.06181232769838886, -0.36606228344018726, 0.9270982864012244,-0.051635859675181466,-0.6646270751953125,0.03533935546875,-0.702850341796875
20230215-1532,2023-02-15 15:32:21Z,u02, 178,100,movements,el-ex, lt, nd,281211.243008875, -0.7532984566067401, -0.07628243648258261, -0.13911270952100893, 0.20196984708309174, 0.405536413192749, 0.14658033847808838, -0.6820591688156128, 0.07620847970247269, -0.7273152470588684, -0.007134437561035156, -0.026998884975910187, 0.06276440620422363, -0.0609173453504431, -0.3641860187317905, 0.9279537322086222,-0.05059018939061095,-0.6716766357421875,0.0730743408203125,-0.680023193359375
20230215-1532,2023-02-15 15:32:21Z,u02, 179,100,movements,el-ex, lt, nd,281211.253031875, -0.7491359066040701, -0.0756477197816659, -0.13677369930099645, 0.22157950699329376, 0.3944488763809204, 0.11062368005514145, -0.6790586113929749, 0.07557559013366699, -0.7301833033561707, -0.045886337757110596, -0.03243900090456009, 0.055958449840545654, -0.0600940673886685, -0.36234933150513504, 0.928771686694807,-0.04974722331487381,-0.6891937255859375,0.0492095947265625,-0.66455078125
20230215-1532,2023-02-15 15:32:21Z,u02, 180,100,movements,el-ex, lt, nd,281211.263053875, -0.7450537411330733, -0.07474161606502111, -0.13448113227523298, 0.21596506237983704, 0.39507046341896057, 0.10034850239753723, -0.6761184334754944, 0.07467205077409744, -0.732999324798584, -0.08286893367767334, -0.037944138050079346, 0.015012204647064209, -0.059158870537645424, -0.36055591724958724, 0.9295706869048243,-0.04896973666405047,-0.724945068359375,0.0431365966796875,-0.674224853515625
20230215-1532,2023-02-15 15:32:21Z,u02, 181,100,movements,el-ex, lt, nd,281211.273076875, -0.7410360340220788, -0.07379128600664348, -0.13239874288432796, 0.1951194405555725, 0.3724263906478882, 0.0814102366566658, -0.6732155680656433, 0.07372433692216873, -0.735761821269989, -0.09347742795944214, -0.060678087174892426, 0.008299052715301514, -0.05824566780056614, -0.3587847951300166, 0.9303486466755806,-0.04829248639337494,-0.7589874267578125,0.0367279052734375,-0.717987060546875
20230215-1532,2023-02-15 15:32:21Z,u02, 182,100,movements,el-ex, lt, nd,281211.283098875, -0.7372195726836407, -0.07291987407707644, -0.13042920719347703, 0.20961527526378632, 0.3614443242549896, 0.08628576993942261, -0.6704455614089966, 0.07285527139902115, -0.7383730411529541, -0.07067370414733887, -0.056452080607414246, -0.013305485248565674, -0.057396882780935576, -0.357098132787286, 0.9310834526863919,-0.047644196526767504,-0.766693115234375,0.0130462646484375,-0.7274627685546875
20230215-1532,2023-02-15 15:32:21Z,u02, 183,100,movements,el-ex, lt, nd,281211.29312187503, -0.7334349830813447, -0.07190979478501103, -0.12847869107883625, 0.16142430901527405, 0.3688247501850128, 0.07592341303825378, -0.6676952838897705, 0.0718478336930275, -0.7409594058990479, -0.07337826490402222, -0.021463319659233093, -0.03446173667907715, -0.05649028871006822, -0.35542810014023446, 0.9318091391869492,-0.047025682904371244,-0.741119384765625,0.0164031982421875,-0.751678466796875
20230215-1532,2023-02-15 15:32:21Z,u02, 184,100,movements,el-ex, lt, nd,281211.30314487504, -0.7300484266573073, -0.07118176155202478, -0.12706706081776864, 0.10157310962677002, 0.3175594210624695, 0.060772042721509933, -0.665216863155365, 0.07112166285514832, -0.7432551383972168, -0.06766265630722046, -0.037216633558273315, -0.030563831329345703, -0.0558219790982747, -0.3539157217686014, 0.9324465512129704,-0.0465935194650334,-0.7410736083984375,0.050384521484375,-0.775421142578125
20230215-1532,2023-02-15 15:32:21Z,u02, 185,100,movements,el-ex, lt, nd,281211.31316687504, -0.7268993355047811, -0.07070395154881307, -0.12562926409350805, 0.16702163219451904, 0.27075862884521484, 0.05469684302806854, -0.6628955006599426, 0.0706450566649437, -0.7453715801239014, -0.0521160364151001, -0.010510176420211792, -0.03468823432922363, -0.05527262917542893, -0.3525041050426819, 0.9330385445037567,-0.04609581699533516,-0.732879638671875,0.033905029296875,-0.7738189697265625
20230215-1532,2023-02-15 15:32:21Z,u02, 186,100,movements,el-ex, lt, nd,281211.323189875, -0.7244694260248272, -0.0705145956593874, -0.12481421486626233, 0.03861533850431442, 0.1889372617006302, 0.042630698531866074, -0.6610912084579468, 0.07045617699623108, -0.7469901442527771, -0.020015239715576172, 0.04027685523033142, 0.032009005546569824, -0.05498515597562689, -0.35139942241722694, 0.9334858773302908,-0.04581618182767312,-0.7150115966796875,0.0601348876953125,-0.780059814453125
20230215-1532,2023-02-15 15:32:21Z,u02, 187,100,movements,el-ex, lt, nd,281211.333211875, -0.7228123506455949, -0.07044141630855043, -0.1241845643359806, 0.05479723960161209, 0.15645122528076172, 0.061520766466856, -0.6598559021949768, 0.07038317620754242, -0.7480884194374084, -0.03417479991912842, -0.007394894957542419, -0.07672542333602905, -0.05480268380636411, -0.35064575152610183, 0.933791410717658,-0.04558072487255884,-0.6811065673828125,0.1107330322265625,-0.7149810791015625
20230215-1532,2023-02-15 15:32:21Z,u02, 188,100,movements,el-ex, lt, nd,281211.343234875, -0.7214987830887046, -0.07009851156041193, -0.12319495104547747, 0.09492605179548264, 0.08531206846237183, 0.024425648152828217, -0.658888578414917, 0.07004112005233765, -0.7489726543426514, -0.06297415494918823, -0.0070986151695251465, -0.03204846382141113, -0.0544396393760786, -0.3500714012012685, 0.9340459821397435,-0.045215255294314464,-0.69403076171875,0.06298828125,-0.8248138427734375
20230215-1532,2023-02-15 15:32:21Z,u02, 189,100,movements,el-ex, lt, nd,281211.353257875, -0.7210336807742485, -0.06954978934407566, -0.12285213680060077, 0.023965325206518173, 0.00870384182780981, -0.04049982503056526, -0.6585654020309448, 0.06949373334646225, -0.7493078112602234, -0.023105621337890625, -0.02019258588552475, 0.05364429950714111, -0.05411328160962594, -0.349882633303905, 0.9341380713096998,-0.04516488937654729,-0.72186279296875,0.0629425048828125,-0.7810211181640625
20230215-1532,2023-02-15 15:32:21Z,u02, 190,100,movements,el-ex, lt, nd,281211.363279875, -0.7211949123202297, -0.06914120730340595, -0.12314955811202152, 0.007510718889534473, -0.03103771060705185, -0.05524484068155289, -0.6587048768997192, 0.06908613443374634, -0.7492228746414185, -0.05078291893005371, 0.003393113613128662, 0.06547647714614868, -0.05397844473751121, -0.34996414265300335, 0.934105288755666,-0.04537174728593682,-0.681671142578125,0.0493011474609375,-0.6956634521484375
20230215-1532,2023-02-15 15:32:21Z,u02, 191,100,movements,el-ex, lt, nd,281211.373302875, -0.7217312463049531, -0.06850441878871873, -0.123533420924821, 0.0199279747903347, -0.07037286460399628, -0.07544545084238052, -0.6591355800628662, 0.06845085322856903, -0.7489023208618164, -0.08309757709503174, -0.006545946002006531, 0.042267799377441406, -0.05376092132894248, -0.3502264924860345, 0.9340059874228409,-0.045649307476099354,-0.7094879150390625,0.072479248046875,-0.683746337890625
20230215-1532,2023-02-15 15:32:21Z,u02, 192,100,movements,el-ex, lt, nd,281211.38332487503, -0.7228946596277545, -0.0680793126364712, -0.1242613891455018, -0.038610875606536865, -0.14940829575061798, -0.09730555862188339, -0.6600255966186523, 0.06802673637866974, -0.748156726360321, -0.0649956464767456, -0.030322276055812836, 0.058810412883758545, -0.05371697781616006, -0.3507650502273963, 0.9337875364132072,-0.04603331037704557,-0.7422332763671875,0.0619049072265625,-0.706634521484375
20230215-1532,2023-02-15 15:32:21Z,u02, 193,100,movements,el-ex, lt, nd,281211.39334787504, -0.724641886903492, -0.06771510727695496, -0.125313080214804, -0.05018550530076027, -0.17333519458770752, -0.1009218618273735, -0.6613481640815735, 0.06766337156295776, -0.7470209002494812, -0.05016905069351196, -0.027731120586395264, 0.053051114082336426, -0.053772331914703535, -0.3515652127405941, 0.9334581611670073,-0.046541968932889866,-0.7250213623046875,0.0377044677734375,-0.6893463134765625
20230215-1532,2023-02-15 15:32:21Z,u02, 194,100,movements,el-ex, lt, nd,281211.403370875, -0.7266623313787057, -0.0674805514477982, -0.1264177519059026, -0.0651342049241066, -0.20948468148708344, -0.09859787672758102, -0.6628666520118713, 0.06742934882640839, -0.7456949949264526, -0.04092961549758911, -0.018936917185783386, 0.05723363161087036, -0.0539047659917472, -0.35248658129206306, 0.9330777643488948,-0.04704480858424432,-0.711517333984375,0.0399322509765625,-0.6939697265625
20230215-1532,2023-02-15 15:32:21Z,u02, 195,100,movements,el-ex, lt, nd,281211.413392875, -0.7283033434368988, -0.06725243885016449, -0.1276604992135342, -0.09341644495725632, -0.23361212015151978, -0.09935580939054489, -0.6640996932983398, 0.06720175594091415, -0.7446176409721375, -0.0042046308517456055, -0.000581890344619751, 0.054233670234680176, -0.054056627455576496, -0.3532266325232306, 0.9327598331925254,-0.04762090979115442,-0.70379638671875,0.048492431640625,-0.6884613037109375
20230215-1532,2023-02-15 15:32:21Z,u02, 196,100,movements,el-ex, lt, nd,281211.423415875, -0.73118805430117, -0.06720423160438212, -0.12910548578169884, -0.11214305460453033, -0.2508334517478943, -0.09780891984701157, -0.6662470698356628, 0.06715365499258041, -0.7427012324333191, 0.029238522052764893, 0.02723720669746399, 0.052393555641174316, -0.054358986919857626, -0.3545341795471331, 0.9322149871712049,-0.04822506615363644,-0.668304443359375,0.066619873046875,-0.6903839111328125
20230215-1532,2023-02-15 15:32:21Z,u02, 197,100,movements,el-ex, lt, nd,281211.433437875, -0.7348002657270325, -0.06720411679677232, -0.13070467259136398, -0.13860954344272614, -0.26109540462493896, -0.08881968259811401, -0.6689255237579346, 0.06715354323387146, -0.7402897477149963, 0.058223187923431396, 0.04469337314367294, 0.04061323404312134, -0.05473075599290049, -0.35617363501805527, 0.9315343617793574,-0.048871694546232296,-0.6370086669921875,0.094390869140625,-0.6903076171875
20230215-1532,2023-02-15 15:32:21Z,u02, 198,100,movements,el-ex, lt, nd,281211.443460875, -0.7390061984823351, -0.06789306018017634, -0.13242436169324315, -0.16503512859344482, -0.26453062891960144, -0.07331717759370804, -0.6720018982887268, 0.06784091144800186, -0.7374354004859924, 0.07468146085739136, 0.05407680571079254, 0.02834421396255493, -0.05546138226237922, -0.35805910864435125, 0.9307384610139399,-0.04943201913827423,-0.6107025146484375,0.111846923828125,-0.699676513671875
20230215-1532,2023-02-15 15:32:21Z,u02, 199,100,movements,el-ex, lt, nd,281211.453483875, -0.7430344743102588, -0.06861321318456334, -0.13412753435279823, -0.17280542850494385, -0.26851126551628113, -0.05360499769449234, -0.6749337911605835, 0.06855939328670502, -0.7346862554550171, 0.09055280685424805, 0.05631853640079498, 0.01035153865814209, -0.05620159370230679, -0.3598586621795062, 0.9299703360107175,-0.04998106727743184,-0.597320556640625,0.121917724609375,-0.7090911865234375
20230215-1532,2023-02-15 15:32:21Z,u02, 200,100,movements,el-ex, lt, nd,281211.463505875, -0.7468617380193888, -0.06919120815468237, -0.135696763825522, -0.16951651871204376, -0.2601635754108429, -0.032034967094659805, -0.6777136325836182, 0.06913601607084274, -0.7320685386657715, 0.08454358577728271, 0.05748140066862106, 0.0031104087829589844, -0.05684892248309651, -0.36157149096179814, 0.9292384506290614,-0.05049678524745709,-0.584381103515625,0.1248779296875,-0.724334716796875
20230215-1532,2023-02-15 15:32:21Z,u02, 201,100,movements,el-ex, lt, nd,281211.47352887504, -0.750263228097747, -0.06990953769680835, -0.13690411617657153, -0.12630699574947357, -0.2583049535751343, 0.012226240709424019, -0.6801658272743225, 0.06985260546207428, -0.7297225594520569, 0.06397026777267456, 0.07119962573051453, -0.022322118282318115, -0.05748682255088319, -0.3630895019724254, 0.9285890580711829,-0.050828600547678744,-0.593170166015625,0.126617431640625,-0.7289581298828125
20230215-1532,2023-02-15 15:32:21Z,u02, 202,100,movements,el-ex, lt, nd,281211.48355087504, -0.7535739781880405, -0.07022432548791883, -0.13726163143534054, -4.980526864528656e-05, -0.26272153854370117, 0.01071670651435852, -0.6825629472732544, 0.07016662508249283, -0.7274506092071533, 0.061835527420043945, 0.05002685636281967, -0.09049677848815918, -0.057781843189781364, -0.36460381749819165, 0.9279765011851567,-0.05084116221584391,-0.6161956787109375,0.14105224609375,-0.752044677734375
20230215-1532,2023-02-15 15:32:21Z,u02, 203,100,movements,el-ex, lt, nd,281211.493573875, -0.7565011818723497, -0.06999644949407836, -0.13684497969518103, 0.09968637675046921, -0.2891171872615814, 0.022119296714663506, -0.6847003698348999, 0.06993930786848068, -0.7254611253738403, 0.04784440994262695, 0.036765389144420624, -0.08609282970428467, -0.057674487791087706, -0.36598238345591433, 0.9274531724488718,-0.05060553388701512,-0.6207275390625,0.1201934814453125,-0.8179473876953125
20230215-1532,2023-02-15 15:32:21Z,u02, 204,100,movements,el-ex, lt, nd,281211.503596875, -0.7592612180753103, -0.06958315315608257, -0.1358557120900659, 0.13519176840782166, -0.30774760246276855, 0.0029066409915685654, -0.6867198944091797, 0.06952701508998871, -0.7235894799232483, 0.03387272357940674, 0.02240718901157379, -0.052091121673583984, -0.05737139819740759, -0.3673061131448425, 0.9269737127305938,-0.05014419768433464,-0.6368560791015625,0.1067047119140625,-0.811553955078125
20230215-1532,2023-02-15 15:32:21Z,u02, 205,100,movements,el-ex, lt, nd,281211.513618875, -0.7617056294273715, -0.06933705995304205, -0.13501700180878518, 0.08872626721858978, -0.3133127987384796, -0.0037930733524262905, -0.6884983777999878, 0.06928151845932007, -0.7219210267066956, -0.006508827209472656, 0.009575895965099335, 0.004544317722320557, -0.05716434658130708, -0.36847215875315503, 0.9265457514204622,-0.04973136848363167,-0.6528472900390625,0.0919342041015625,-0.7756805419921875
20230215-1532,2023-02-15 15:32:21Z,u02, 206,100,movements,el-ex, lt, nd,281211.523641875, -0.7646872009017763, -0.06901041045680933, -0.13468069479050607, -0.00044309673830866814, -0.277076780796051, -0.004109669476747513, -0.6906633973121643, 0.06895564496517181, -0.7198812961578369, -0.07030755281448364, -0.022675752639770508, 0.04477149248123169, -0.05702526661295697, -0.36987492419586554, 0.9260049585239079,-0.04955149657178778,-0.69500732421875,0.078857421875,-0.717376708984375
20230215-1532,2023-02-15 15:32:21Z,u02, 207,100,movements,el-ex, lt, nd,281211.533663875, -0.767223469206188, -0.06948392372691603, -0.13513698431549526, -0.11924724280834198, -0.22862136363983154, 0.006104351952672005, -0.6924642324447632, 0.06942802667617798, -0.7181037068367004, -0.11413049697875977, -0.008209772408008575, 0.10868293046951294, -0.05739142166292094, -0.37101802201221085, 0.9255222205429724,-0.04960142662571133,-0.7609710693359375,0.0462799072265625,-0.67510986328125
20230215-1532,2023-02-15 15:32:21Z,u02, 208,100,movements,el-ex, lt, nd,281211.543686875, -0.7693605297429943, -0.07068694056981378, -0.13620040141095785, -0.1973341703414917, -0.18037021160125732, 0.01000034250319004, -0.693938672542572, 0.0706280916929245, -0.7165616750717163, -0.09651225805282593, 0.0152788907289505, 0.11069619655609131, -0.0581975595494203, -0.37193036045397637, 0.9250946168513136,-0.04980557250997816,-0.8065948486328125,0.06121826171875,-0.6094207763671875
20230215-1532,2023-02-15 15:32:21Z,u02, 209,100,movements,el-ex, lt, nd,281211.55370987504, -0.7711114001209362, -0.07219203319781423, -0.13744931308471675, -0.17074623703956604, -0.1578582376241684, 0.01656157337129116, -0.6951173543930054, 0.07212933897972107, -0.715268611907959, -0.05601167678833008, 0.021880045533180237, 0.053555965423583984, -0.05916839623475513, -0.37264567575088287, 0.924732101425735,-0.05004819691475582,-0.7904510498046875,0.085906982421875,-0.605865478515625
20230215-1532,2023-02-15 15:32:21Z,u02, 210,100,movements,el-ex, lt, nd,281211.56373187504, -0.7727815525006316, -0.07300619146513068, -0.13808266107899334, -0.01909245178103447, -0.16697050631046295, 0.004208074416965246, -0.6962697505950928, 0.072941355407238, -0.714064359664917, 0.009792208671569824, 0.0040087103843688965, -0.07621890306472778, -0.059703958848026886, -0.3733674581553874, 0.9244015936945215,-0.05013762249434982,-0.751129150390625,0.0940093994140625,-0.661712646484375
20230215-1532,2023-02-15 15:32:21Z,u02, 211,100,movements,el-ex, lt, nd,281211.573754875, -0.7745202227881096, -0.07253437211534715, -0.13776707798361612, 0.11815860867500305, -0.18494924902915955, -0.022877337411046028, -0.6975342631340027, 0.0724707841873169, -0.7128772139549255, 0.05581068992614746, -0.0055152177810668945, -0.14950382709503174, -0.05947092705854026, -0.374198615084597, 0.9240863447550822,-0.050029257529441394,-0.6864776611328125,0.0769500732421875,-0.790283203125
20230215-1532,2023-02-15 15:32:21Z,u02, 212,100,movements,el-ex, lt, nd,281211.583776875, -0.7763296897559893, -0.07128408769409764, -0.13685887801412763, 0.17268814146518707, -0.18241870403289795, -0.024363143369555473, -0.698885977268219, 0.07122373580932617, -0.7116779685020447, 0.06816399097442627, 0.006657123565673828, -0.1224895715713501, -0.05876952944605592, -0.3751095230287956, 0.923774612491856,-0.049793279031726104,-0.6417236328125,0.06695556640625,-0.8623809814453125
20230215-1532,2023-02-15 15:32:21Z,u02, 213,100,movements,el-ex, lt, nd,281211.593799875, -0.778135126673446, -0.07008244534750807, -0.13593538442313496, 0.12150991708040237, -0.194441556930542, -0.01399625651538372, -0.700229287147522, 0.07002509385347366, -0.7104754447937012, 0.05498093366622925, 0.03442131727933884, -0.025379657745361328, -0.05808711963699413, -0.3760161692409274, 0.9234625822055191,-0.049542380746987635,-0.6307220458984375,0.077880859375,-0.83416748046875
20230215-1532,2023-02-15 15:32:21Z,u02, 214,100,movements,el-ex, lt, nd,281211.603822875, -0.7801204303395901, -0.06925034081614627, -0.13517111865885095, 0.11198374629020691, -0.2030225247144699, 0.006227736361324787, -0.7016791105270386, 0.06919500231742859, -0.7091250419616699, 0.041629791259765625, 0.028751149773597717, 0.00015598535537719727, -0.05760891160511731, -0.376986324196942, 0.9231103783913239,-0.04929059956600063,-0.6452484130859375,0.1044464111328125,-0.7358551025390625
20230215-1532,2023-02-15 15:32:21Z,u02, 215,100,movements,el-ex, lt, nd,281211.613844875, -0.7819452386906457, -0.06852578131075085, -0.13428640583121482, 0.10915946215391159, -0.1683921068906784, 0.0166766494512558, -0.703007161617279, 0.06847216188907623, -0.707878828048706, 0.006672382354736328, 0.002984747290611267, -9.846687316894531e-05, -0.057153047861778536, -0.3778810792808408, 0.9227900034556459,-0.04896826139074921,-0.6600494384765625,0.0979461669921875,-0.7089691162109375
20230215-1532,2023-02-15 15:32:21Z,u02, 216,100,movements,el-ex, lt, nd,281211.623867875, -0.784292494330376, -0.06792093811588905, -0.13332947681911964, 0.15322525799274445, -0.1189795508980751, 0.025334186851978302, -0.7046959400177002, 0.06786872446537018, -0.7062559723854065, 0.005446732044219971, 0.009111866354942322, 0.014925956726074219, -0.056750727714622924, -0.3790136866871541, 0.9223710424459559,-0.04857572384726888,-0.6963348388671875,0.0714569091796875,-0.707977294921875
20230215-1532,2023-02-15 15:32:21Z,u02, 217,100,movements,el-ex, lt, nd,281211.633889875, -0.7855534014973397, -0.06706783862238823, -0.13201566882826812, 0.1734013557434082, -0.06758187711238861, 0.02308168262243271, -0.7056265473365784, 0.0670175701379776, -0.7054075002670288, -0.00019913911819458008, 0.0080709308385849, 0.010003447532653809, -0.0561393517322841, -0.37966382432255724, 0.922166062095474,-0.04809786598928025,-0.699249267578125,0.0769805908203125,-0.6913299560546875
20230215-1532,2023-02-15 15:32:21Z,u02, 218,100,movements,el-ex, lt, nd,281211.64391287504, -0.7854534715594564, -0.06609651459889085, -0.13047921596994302, 0.1729581505060196, -0.036789339035749435, 0.04620753601193428, -0.7056017518043518, 0.06604839861392975, -0.705523669719696, -0.016367733478546143, -0.0033653005957603455, 0.019885241985321045, -0.055398223889412006, -0.3796961896495154, 0.9222244150455331,-0.047578553107435695,-0.7058258056640625,0.0750885009765625,-0.695404052734375
20230215-1532,2023-02-15 15:32:21Z,u02, 219,100,movements,el-ex, lt, nd,281211.65393587505, -0.7842994920718642, -0.06538467344437439, -0.12896127682064898, 0.1283653825521469, 0.009669770486652851, 0.06880978494882584, -0.7048201560974121, 0.06533809751272202, -0.7063705921173096, -0.02613675594329834, -0.015029869973659515, 0.03528904914855957, -0.05475520900674206, -0.3792315416701208, 0.9224813706562265,-0.047046753054501074,-0.7219696044921875,0.06268310546875,-0.685638427734375
20230215-1532,2023-02-15 15:32:21Z,u02, 220,100,movements,el-ex, lt, nd,281211.663957875, -0.7827811154930816, -0.06513800456078088, -0.12733091348970021, 0.12541784346103668, 0.05081294849514961, 0.10984808951616287, -0.703758180141449, 0.06509195268154144, -0.7074514031410217, -0.03115081787109375, -0.008359774947166443, 0.03876543045043945, -0.05429726653287685, -0.37858435447340905, 0.9228078252783285,-0.0463832341933241,-0.73095703125,0.0503082275390625,-0.67108154296875
20230215-1532,2023-02-15 15:32:21Z,u02, 221,100,movements,el-ex, lt, nd,281211.673980875, -0.7815566790924205, -0.06561628021523219, -0.1255996252353309, 0.08711785078048706, 0.06814426928758621, 0.16251929104328156, -0.7028693556785583, 0.065569207072258, -0.7082903385162354, -0.0300559401512146, 0.0011879950761795044, 0.05040764808654785, -0.05416198633448276, -0.37804934320924116, 0.9230776554938814,-0.04552611200201225,-0.7349090576171875,0.056732177734375,-0.6686859130859375
20230215-1532,2023-02-15 15:32:21Z,u02, 222,100,movements,el-ex, lt, nd,281211.684002875, -0.7804496519155166, -0.0666837896335648, -0.12368508622284582, 0.0595458447933197, 0.07688263058662415, 0.21988078951835632, -0.7020351886749268, 0.06663437932729721, -0.7090178728103638, 0.0015195608139038086, 0.014954350888729095, 0.03911125659942627, -0.05426734869873879, -0.3775528067388419, 0.9233262068546839,-0.044468680959618645,-0.7329254150390625,0.0667572021484375,-0.6578826904296875
20230215-1532,2023-02-15 15:32:21Z,u02, 223,100,movements,el-ex, lt, nd,281211.694025875, -0.7796298873159133, -0.06801904163972997, -0.12163253133139175, 0.04502549022436142, 0.04970240965485573, 0.24987171590328217, -0.7013905644416809, 0.06796660274267197, -0.7095292806625366, 0.05418914556503296, 0.041774600744247437, 0.0007126331329345703, -0.05447752582514356, -0.37718373479375533, 0.9235208160173659,-0.04328878845424881,-0.7005157470703125,0.0815887451171875,-0.6699066162109375
20230215-1532,2023-02-15 15:32:21Z,u02, 224,100,movements,el-ex, lt, nd,281211.704048875, -0.779334988647869, -0.0696046026800197, -0.11960819645676604, 0.023672588169574738, 0.007521398365497589, 0.24255278706550598, -0.7011047005653381, 0.06954841315746307, -0.7096585035324097, 0.09775704145431519, 0.04860037565231323, -0.019375920295715332, -0.05482047229235861, -0.37704837264775204, 0.9236124879669013,-0.04206003131618781,-0.6472015380859375,0.1097412109375,-0.7088165283203125
20230215-1532,2023-02-15 15:32:21Z,u02, 225,100,movements,el-ex, lt, nd,281211.714070875, -0.779554184853527, -0.07117471308722975, -0.11780854694398314, 0.026600200682878494, -0.04715010151267052, 0.22515062987804413, -0.7011826038360596, 0.07111463695764542, -0.7094262838363647, 0.11165934801101685, 0.04846848547458649, -0.03236454725265503, -0.0552095304035966, -0.37714555801128535, 0.9236007458647658,-0.040923843910061396,-0.6033477783203125,0.1181488037109375,-0.729034423828125
20230215-1532,2023-02-15 15:32:22Z,u02, 226,100,movements,el-ex, lt, nd,281211.72409362503, -0.7804695241330055, -0.07225655981824754, -0.11605101647343546, 0.05717627704143524, -0.08080553263425827, 0.19204239547252655, -0.7017771601676941, 0.0721937045454979, -0.708729088306427, 0.09137988090515137, 0.033580221235752106, -0.04032492637634277, -0.05539510572352229, -0.37758025466088685, 0.9234576351352781,-0.03988074777864885,-0.5895233154296875,0.1195831298828125,-0.741790771484375
20230215-1532,2023-02-15 15:32:22Z,u02, 227,100,movements,el-ex, lt, nd,281211.73411562503, -0.7821196079739883, -0.07284451582743859, -0.11449639281312163, 0.03469626605510712, -0.11813053488731384, 0.15959258377552032, -0.702915608882904, 0.07278010994195938, -0.7075398564338684, 0.049732744693756104, 0.019596584141254425, -0.004481017589569092, -0.05540481382848462, -0.37836539680363285, 0.9231730229887412,-0.03900508481070466,-0.6103973388671875,0.10577392578125,-0.749053955078125
20230215-1532,2023-02-15 15:32:22Z,u02, 228,100,movements,el-ex, lt, nd,281211.74413862504, -0.7844252878341411, -0.07352665129683676, -0.11356470722058568, -0.022817455232143402, -0.17898643016815186, 0.10934839397668839, -0.7045098543167114, 0.0734604224562645, -0.7058820128440857, 0.0313073992729187, 0.008906513452529907, 0.014567255973815918, -0.055587159332342075, -0.37943255830754286, 0.9227501876787025,-0.03838060697472068,-0.6531829833984375,0.092376708984375,-0.7120208740234375
20230215-1532,2023-02-15 15:32:22Z,u02, 229,100,movements,el-ex, lt, nd,281211.754161625, -0.7872186395616724, -0.07438863260720059, -0.11318586082782303, -0.05595117434859276, -0.19669830799102783, 0.0904463455080986, -0.7064337730407715, 0.07432004809379578, -0.7038663625717163, -0.01632922887802124, -0.011621683835983276, 0.017220795154571533, -0.0559653731428996, -0.38070291203361695, 0.9222211965019502,-0.0379624915804064,-0.6732025146484375,0.082366943359375,-0.691314697265625
20230215-1532,2023-02-15 15:32:22Z,u02, 230,100,movements,el-ex, lt, nd,281211.764183625, -0.7895583733362045, -0.07542042219036953, -0.11301859256922628, -0.03531140834093094, -0.21628879010677338, 0.05991682410240173, -0.7080238461494446, 0.07534894347190857, -0.7021571397781372, -0.04107576608657837, -0.011567212641239166, -0.003958582878112793, -0.056452518159710925, -0.3817519239215308, 0.9217717179139298,-0.03762093462267784,-0.7227630615234375,0.0626983642578125,-0.6866455078125
20230215-1532,2023-02-15 15:32:22Z,u02, 231,100,movements,el-ex, lt, nd,281211.774206625, -0.7911506697865539, -0.07639262415985776, -0.11299521052774218, -0.03881985694169998, -0.24373853206634521, 0.011774328537285328, -0.7090885639190674, 0.07631834596395493, -0.700977087020874, -0.015215516090393066, -0.019311517477035522, -0.013454735279083252, -0.056925101015095125, -0.3824539175852894, 0.9214615353686818,-0.037377363972082064,-0.7490997314453125,0.06378173828125,-0.70611572265625
20230215-1532,2023-02-15 15:32:22Z,u02, 232,100,movements,el-ex, lt, nd,281211.784228625, -0.7921935519700842, -0.07702231377532905, -0.1130453286340492, 0.003353981301188469, -0.2276756763458252, -0.016727380454540253, -0.7097848653793335, 0.0769461840391159, -0.7002032995223999, -0.010857105255126953, -0.011806420981884003, -0.027396798133850098, -0.057243710179010004, -0.38291188984720903, 0.921256733826121,-0.03724894204108722,-0.72430419921875,0.0570068359375,-0.7144317626953125
20230215-1532,2023-02-15 15:32:22Z,u02, 233,100,movements,el-ex, lt, nd,281211.794251625, -0.7928765224143922, -0.07740152012724477, -0.113031303138194, -0.0005555390380322933, -0.22977396845817566, -0.0265821423381567, -0.7102420926094055, 0.07732425630092621, -0.6996978521347046, -0.02367502450942993, -0.018959395587444305, -0.0009857416152954102, -0.05742805988664758, -0.38321414498379786, 0.9211236962701752,-0.037149510319779665,-0.72064208984375,0.0651397705078125,-0.72760009765625
20230215-1532,2023-02-15 15:32:22Z,u02, 234,100,movements,el-ex, lt, nd,281211.804274625, -0.7938050215973962, -0.07758796942858102, -0.11329062846200223, -0.02720491588115692, -0.24348925054073334, -0.05426058545708656, -0.7108811736106873, 0.07751014828681946, -0.699027955532074, 0.022374212741851807, -0.016429223120212555, -0.0128403902053833, -0.0575807446311434, -0.38362803961488756, 0.9209395179313632,-0.03720611609914104,-0.733917236328125,0.0583648681640625,-0.70068359375
20230215-1532,2023-02-15 15:32:22Z,u02, 235,100,movements,el-ex, lt, nd,281211.81429662503, -0.7956887430038688, -0.0775828673063116, -0.11400438321002157, -0.04734187573194504, -0.26107197999954224, -0.08222298324108124, -0.712196946144104, 0.07750505954027176, -0.6976879239082336, 0.039772748947143555, -0.025960877537727356, -0.026967287063598633, -0.05775062904647633, -0.384474842759244, 0.9205645451371601,-0.03748138895416444,-0.688507080078125,0.0610809326171875,-0.7118682861328125
20230215-1532,2023-02-15 15:32:22Z,u02, 236,100,movements,el-ex, lt, nd,281211.82431962504, -0.7978824065468986, -0.07741424822086387, -0.11486561807180201, -0.04253970459103584, -0.22990792989730835, -0.08338549733161926, -0.7137351036071777, 0.07733694463968277, -0.696133017539978, 0.01822429895401001, -0.03334586322307587, -0.04024088382720947, -0.05788026542994381, -0.38546511427683716, 0.9201272258884726,-0.037847093225942756,-0.67242431640625,0.051544189453125,-0.7246551513671875
20230215-1532,2023-02-15 15:32:22Z,u02, 237,100,movements,el-ex, lt, nd,281211.83434162504, -0.8002646838353193, -0.07696577185649041, -0.11574482253178828, -0.04510539397597313, -0.1960463672876358, -0.06730107963085175, -0.7154162526130676, 0.07688980549573898, -0.6944548487663269, 0.008278250694274902, -0.02505570650100708, -0.02611100673675537, -0.05788939985621582, -0.38655063401320366, 0.9196536670181865,-0.03827000677850472,-0.6955108642578125,0.0439910888671875,-0.7363739013671875
20230215-1532,2023-02-15 15:32:22Z,u02, 238,100,movements,el-ex, lt, nd,281211.844364625, -0.8023109274636628, -0.07654580050282508, -0.11652195461753619, -0.039856187999248505, -0.1548382192850113, -0.07129006832838058, -0.7168589234352112, 0.07647107541561127, -0.6930118203163147, 0.030274569988250732, -0.023233160376548767, -0.030758380889892578, -0.05788642708773899, -0.3874832082388585, 0.919245375229272,-0.03865017635338325,-0.7071380615234375,0.0518341064453125,-0.7205657958984375
20230215-1532,2023-02-15 15:32:22Z,u02, 239,100,movements,el-ex, lt, nd,281211.854387625, -0.8034660829132776, -0.07609406314555368, -0.11727696609858115, -0.04669305682182312, -0.09799410402774811, -0.05607382953166962, -0.7176837921142578, 0.07602065056562424, -0.6922072172164917, 0.03332722187042236, -0.014878690242767334, -0.023796260356903076, -0.057848034257228086, -0.3880077290872703, 0.919009519663986,-0.0390522357351977,-0.68658447265625,0.0532379150390625,-0.7237701416015625
20230215-1532,2023-02-15 15:32:22Z,u02, 240,100,movements,el-ex, lt, nd,281211.864409625, -0.8037462793993518, -0.07585620542600008, -0.11787520604127558, -0.040597572922706604, -0.040029074996709824, -0.036184489727020264, -0.7178906798362732, 0.07578347623348236, -0.6920185685157776, 0.025187551975250244, -0.021309606730937958, -0.03143119812011719, -0.05786052888453162, -0.3881273854058378, 0.9189447294166738,-0.03936565556593672,-0.684356689453125,0.0611419677734375,-0.71600341796875
20230215-1532,2023-02-15 15:32:22Z,u02, 241,100,movements,el-ex, lt, nd,281211.874432625, -0.8041161654464437, -0.07536417514528225, -0.11832581144508444, -0.019864065572619438, -0.0009751506149768829, -0.019347717985510826, -0.7181733846664429, 0.07529285550117493, -0.6917787790298462, 0.029590070247650146, -0.025274544954299927, -0.05571877956390381, -0.057729663173431624, -0.3883012819497618, 0.9188669453583451,-0.039658515521918215,-0.6927032470703125,0.054473876953125,-0.72344970703125
20230215-1532,2023-02-15 15:32:22Z,u02, 242,100,movements,el-ex, lt, nd,281211.884454625, -0.8020154629273037, -0.07470906590195879, -0.11834371054056962, -0.00423307903110981, 0.04278218373656273, -0.0011616037227213383, -0.7167538404464722, 0.07463958859443665, -0.693320095539093, 0.03651714324951172, -0.023858346045017242, -0.05545926094055176, -0.05739090018600147, -0.3873580384970399, 0.9192776213271722,-0.039855572200194325,-0.6885833740234375,0.050018310546875,-0.74749755859375
20230215-1532,2023-02-15 15:32:22Z,u02, 243,100,movements,el-ex, lt, nd,281211.894477625, -0.7979959283969668, -0.07355640113639902, -0.11797793097717098, 0.004758817609399557, 0.07447540014982224, 0.026325147598981857, -0.7140223979949951, 0.07349009066820145, -0.6962551474571228, 0.03155791759490967, 0.0020714327692985535, -0.022021889686584473, -0.056710881990703704, -0.3855597366589389, 0.9200681576682973,-0.04002708457205359,-0.68023681640625,0.05078125,-0.748779296875
20230215-1532,2023-02-15 15:32:22Z,u02, 244,100,movements,el-ex, lt, nd,281211.90450062504, -0.7945020958924872, -0.07204937486944707, -0.11746491171921108, 0.023284584283828735, 0.09651438891887665, 0.04982368275523186, -0.7116636037826538, 0.07198705524206161, -0.6988223195075989, 0.026818811893463135, 0.014484487473964691, -0.010039985179901123, -0.055849837050884574, -0.3840177645845445, 0.9207585582145075,-0.040182224294603025,-0.682464599609375,0.0755615234375,-0.7182769775390625
20230215-1532,2023-02-15 15:32:22Z,u02, 245,100,movements,el-ex, lt, nd,281211.91452262504, -0.7922301308581708, -0.07095879712000726, -0.11668179411599532, 0.06367728114128113, 0.11924633383750916, 0.057756971567869186, -0.7101296186447144, 0.07089926302433014, -0.7004921436309814, 0.0016641020774841309, -0.021857522428035736, -0.00450974702835083, -0.05515273840591532, -0.3830301752815221, 0.92121566620171,-0.04009588698355606,-0.684844970703125,0.0864715576171875,-0.7088623046875
