SessionID,LoggingTime,UID,RecNo,Hertz,Activity,MoveType,Wrist,Side,TimeStamp,DMRoll,DMPitch,DMYaw,DMRotX,DMRotY,DMRotZ,DMGrvX,DMGrvY,DMGrvZ,DMUAccelX,DMUAccelY,DMUAccelZ,DMQuatX,DMQuatY,DMQuatW,DMQuatZ,AccelroX,AceelroY,AceelroZ
20230215-1533,2023-02-15 15:33:30Z,u02, 1040,100,movements,el-ex, lt, nd,281279.962809125, -0.8452497484273948, -0.2943521796389711, 1.0845858168531006, -0.08167994022369385, 0.7380184531211853, 0.07473955303430557, -0.7159596681594849, 0.2901199460029602, -0.6350055932998657, 0.11923426389694214, -0.05769813060760498, 0.06772959232330322, 0.09483906835672584, -0.4165366226231649, 0.7416790881461548,0.5171217095102677,-0.5884246826171875,0.279510498046875,-0.48736572265625
20230215-1533,2023-02-15 15:33:30Z,u02, 1041,100,movements,el-ex, lt, nd,281279.972831125, -0.8377508760764121, -0.29481263021794823, 1.0848267383674168, 0.04728759825229645, 0.7336479425430298, 0.023431409150362015, -0.711078405380249, 0.2905605733394623, -0.6402671337127686, 0.1085699200630188, -0.11056792736053467, 0.020714521408081055, 0.09276405108415695, -0.4138372505899831, 0.7430990717448086,0.5176265900487709,-0.5967254638671875,0.232421875,-0.5672760009765625
20230215-1533,2023-02-15 15:33:30Z,u02, 1042,100,movements,el-ex, lt, nd,281279.98285412503, -0.8304152575176355, -0.294342101223608, 1.0854373808008693, 0.09181778132915497, 0.6884522438049316, -0.013233393430709839, -0.7064634561538696, 0.290110319852829, -0.64555823802948, 0.0804564356803894, -0.11329150199890137, 0.0005387067794799805, 0.09117991911166962, -0.41098310791575715, 0.7445293428408981,0.5181265976630889,-0.602508544921875,0.17999267578125,-0.6195526123046875
20230215-1533,2023-02-15 15:33:30Z,u02, 1043,100,movements,el-ex, lt, nd,281279.99287612503, -0.8237975944928719, -0.2936364414192292, 1.0858257331601857, 0.046453721821308136, 0.6084588766098022, -0.035007983446121216, -0.7023259401321411, 0.28943490982055664, -0.6503580808639526, 0.04091852903366089, -0.054586946964263916, 0.022550463676452637, 0.0898288912838059, -0.4083524420320062, 0.7458971692124509,0.5184751116078202,-0.626007080078125,0.17681884765625,-0.64501953125
20230215-1533,2023-02-15 15:33:30Z,u02, 1044,100,movements,el-ex, lt, nd,281280.00289912504, -0.8182329982126597, -0.29334344930296674, 1.085557682297914, -0.04870688170194626, 0.5137680768966675, -0.04454289749264717, -0.6987580060958862, 0.2891544699668884, -0.6543141603469849, 0.017849862575531006, -0.027237385511398315, 0.05664259195327759, 0.08844977683281006, -0.4062260092819058, 0.747146624130248,0.5185836891028913,-0.661407470703125,0.2348480224609375,-0.6278076171875
20230215-1533,2023-02-15 15:33:30Z,u02, 1045,100,movements,el-ex, lt, nd,281280.012922125, -0.8138814048151924, -0.2936428807632074, 1.0844898402349739, -0.12726449966430664, 0.41771504282951355, -0.05163836106657982, -0.6958410739898682, 0.2894410789012909, -0.6572891473770142, -0.0062767863273620605, -0.02439597249031067, 0.05458223819732666, 0.08698424251652728, -0.4047087509600427, 0.7482580669569974,0.5184152918829221,-0.680908203125,0.2619171142578125,-0.5976715087890625
20230215-1533,2023-02-15 15:33:30Z,u02, 1046,100,movements,el-ex, lt, nd,281280.022944125, -0.8106612999909572, -0.2943351278020972, 1.0828989081074976, -0.18085423111915588, 0.3228687047958374, -0.05524028465151787, -0.6935755014419556, 0.29010364413261414, -0.6593881249427795, -0.003323793411254883, -0.02887323498725891, 0.062449097633361816, 0.08554854832076622, -0.4037169439412839, 0.7492113046965558,0.5180504807238336,-0.702117919921875,0.265045166015625,-0.6027069091796875
20230215-1533,2023-02-15 15:33:30Z,u02, 1047,100,movements,el-ex, lt, nd,281280.032967125, -0.8080192692250174, -0.29498227809694616, 1.0814206969144446, -0.09534309804439545, 0.29773592948913574, -0.05537509545683861, -0.6916951537132263, 0.29072290658950806, -0.6610884666442871, 0.024382591247558594, -0.029934942722320557, 0.04980611801147461, 0.08430448006859749, -0.40292495196129335, 0.7500246450698709,0.5176941353159932,-0.6968994140625,0.26123046875,-0.5969390869140625
20230215-1533,2023-02-15 15:33:30Z,u02, 1048,100,movements,el-ex, lt, nd,281280.042990125, -0.8052223155779902, -0.2946878194394027, 1.0808462033288375, 0.03383034095168114, 0.2915906608104706, -0.05648377165198326, -0.6899051070213318, 0.2904411554336548, -0.6630797982215881, 0.04653364419937134, -0.018560081720352173, -0.010977208614349365, 0.08358424397635518, -0.40183799573684886, 0.7507824551010098,0.5175572160243174,-0.6673126220703125,0.2607879638671875,-0.6112823486328125
20230215-1533,2023-02-15 15:33:30Z,u02, 1049,100,movements,el-ex, lt, nd,281280.053012125, -0.8023033779113977, -0.2939732256761943, 1.0809251779262559, 0.07004320621490479, 0.29082101583480835, -0.03319144248962402, -0.6881157159805298, 0.28975728154182434, -0.6652348041534424, 0.05344170331954956, 0.038276076316833496, -0.05339306592941284, 0.08313416129118743, -0.4005886856844149, 0.7514599995711129,0.5176148074089969,-0.64337158203125,0.271881103515625,-0.6740570068359375
20230215-1533,2023-02-15 15:33:30Z,u02, 1050,100,movements,el-ex, lt, nd,281280.06303512503, -0.7992638530588496, -0.2931841720381771, 1.0814581167598991, 0.10926970094442368, 0.28226161003112793, -0.0068964543752372265, -0.6862542629241943, 0.2890019714832306, -0.6674825549125671, 0.06438237428665161, 0.06036323308944702, -0.05741679668426514, 0.08277360257483815, -0.39925837910624074, 0.7520538508695546,0.5178380948891771,-0.634674072265625,0.328033447265625,-0.7186279296875
20230215-1533,2023-02-15 15:33:30Z,u02, 1051,100,movements,el-ex, lt, nd,281280.07305712503, -0.7964173037965788, -0.29256787106942245, 1.0821511130225827, 0.060407716780900955, 0.2364366054534912, 0.0135663952678442, -0.6844785809516907, 0.2884119153022766, -0.6695576906204224, 0.02828967571258545, 0.07877552509307861, -0.06089580059051514, 0.08242434164245949, -0.39802938098021245, 0.7525380820110457,0.5181361703412236,-0.6218719482421875,0.349365234375,-0.7248992919921875
20230215-1533,2023-02-15 15:33:30Z,u02, 1052,100,movements,el-ex, lt, nd,281280.08308012504, -0.7943692626099244, -0.29255732160418185, 1.0824054427690857, -0.021904198452830315, 0.15556812286376953, 0.016407189890742302, -0.6831080913543701, 0.2884018123149872, -0.6709603071212769, -0.004880130290985107, 0.06482383608818054, -0.03649824857711792, 0.08194848005075424, -0.3972459009856625, 0.7528811362741183,0.5183146681714871,-0.65618896484375,0.3671875,-0.7304534912109375
20230215-1533,2023-02-15 15:33:30Z,u02, 1053,100,movements,el-ex, lt, nd,281280.093103125, -0.7932346982099248, -0.29296829517446127, 1.0821334787647185, -0.0711190328001976, 0.08792728930711746, 0.0017583125736564398, -0.6822618246078491, 0.2887953221797943, -0.6716516017913818, -0.047352373600006104, 0.04288491606712341, -0.04081171751022339, 0.08143382758017277, -0.3969165133061902, 0.7531125486382731,0.5183117518988034,-0.68798828125,0.3532257080078125,-0.70745849609375
20230215-1533,2023-02-15 15:33:30Z,u02, 1054,100,movements,el-ex, lt, nd,281280.103125125, -0.793003783099501, -0.29366094144592675, 1.0813383571573834, -0.1273183971643448, 0.0050422619096934795, -0.009561985731124878, -0.6819640398025513, 0.28945836424827576, -0.6716686487197876, -0.06364136934280396, 0.006302684545516968, -0.0319904088973999, 0.08093518123693177, -0.3970077700528038, 0.7532563393276277,0.518111084301615,-0.7296142578125,0.3316802978515625,-0.71246337890625
20230215-1533,2023-02-15 15:33:30Z,u02, 1055,100,movements,el-ex, lt, nd,281280.113148125, -0.7935293666944503, -0.29441740522771376, 1.0803993260889826, -0.1080533117055893, -0.05468977615237236, -0.0072428518906235695, -0.6821607351303101, 0.2901823818683624, -0.6711564064025879, -0.08375412225723267, -0.013616859912872314, -0.03573751449584961, 0.08057784519542502, -0.39740283106182894, 0.7532770605957626,0.5178338268806134,-0.74560546875,0.2957611083984375,-0.7036590576171875
20230215-1533,2023-02-15 15:33:30Z,u02, 1056,100,movements,el-ex, lt, nd,281280.123170125, -0.7944412041203874, -0.2949459620821471, 1.0797599118775802, -0.0664731115102768, -0.09271731972694397, 0.0019498472101986408, -0.6826629042625427, 0.290688157081604, -0.6704264879226685, -0.08271795511245728, -0.03974217176437378, -0.05311477184295654, 0.08047230581581356, -0.3978830963235131, 0.7531784946738876,0.5176246116312405,-0.7659149169921875,0.2765655517578125,-0.7068939208984375
20230215-1533,2023-02-15 15:33:30Z,u02, 1057,100,movements,el-ex, lt, nd,281280.133193125, -0.7955579470673272, -0.2954811627780815, 1.0792760359320397, -0.08384162187576294, -0.10220775753259659, 0.008275307714939117, -0.6832999587059021, 0.291200190782547, -0.6695547699928284, -0.07742691040039062, -0.008103936910629272, -0.05932706594467163, 0.08044774087703821, -0.39843540619639406, 0.7529977183122519,0.5174667188981809,-0.765380859375,0.250946044921875,-0.723541259765625
20230215-1533,2023-02-15 15:33:30Z,u02, 1058,100,movements,el-ex, lt, nd,281280.143216125, -0.7967842612195638, -0.29623463050105775, 1.0785242824885102, -0.12695208191871643, -0.0974673330783844, -0.0026588330511003733, -0.683963418006897, 0.291920930147171, -0.6685627698898315, -0.07317763566970825, 0.10509747266769409, -0.03370779752731323, 0.08030933301525875, -0.3990852503547355, 0.752829477736759,0.5172320844209664,-0.7607269287109375,0.2830963134765625,-0.7288818359375
20230215-1533,2023-02-15 15:33:30Z,u02, 1059,100,movements,el-ex, lt, nd,281280.153238125, -0.7980206769307664, -0.29711052872927773, 1.0773797049848968, -0.14046671986579895, -0.08313819766044617, -0.024927893653512, -0.6846061944961548, 0.2927585542201996, -0.6675378084182739, -0.08794629573822021, 0.12026631832122803, -0.046924471855163574, 0.08004489830404503, -0.3997798163991633, 0.7527409914245546,0.516865402869164,-0.75714111328125,0.3970184326171875,-0.7022705078125
20230215-1533,2023-02-15 15:33:30Z,u02, 1060,100,movements,el-ex, lt, nd,281280.16326112504, -0.7987379887048213, -0.29817007938632356, 1.0763917707140132, -0.06822528690099716, -0.06114474684000015, -0.056488215923309326, -0.6848621964454651, 0.29377153515815735, -0.6668297648429871, -0.10198771953582764, 0.08955970406532288, -0.10836243629455566, 0.07960256891871244, -0.40031055966719814, 0.752686086542666,0.5166026789450768,-0.772552490234375,0.41302490234375,-0.7144622802734375
20230215-1533,2023-02-15 15:33:30Z,u02, 1061,100,movements,el-ex, lt, nd,281280.173284125, -0.7992941202722947, -0.29803646329227995, 1.075711798680857, 0.015341134741902351, -0.011124457232654095, -0.07370912283658981, -0.685261070728302, 0.2936438024044037, -0.6664761900901794, -0.09531748294830322, 0.05163201689720154, -0.18348413705825806, 0.07966427891829413, -0.4005190629607674, 0.7527713736433641,0.5163072316740891,-0.7868499755859375,0.383331298828125,-0.7751922607421875
20230215-1533,2023-02-15 15:33:30Z,u02, 1062,100,movements,el-ex, lt, nd,281280.183306125, -0.7993604459289841, -0.2969574869740131, 1.0755575017847219, 0.09796251356601715, 0.02089872397482395, -0.08220061659812927, -0.6855320334434509, 0.292612224817276, -0.6666512489318848, -0.1060938835144043, 0.008077412843704224, -0.18748998641967773, 0.08008853191853887, -0.40032513602705083, 0.7529675627588024,0.5161059296753617,-0.78057861328125,0.34527587890625,-0.8499603271484375
20230215-1533,2023-02-15 15:33:30Z,u02, 1063,100,movements,el-ex, lt, nd,281280.193329125, -0.7990681649018044, -0.29541540118547877, 1.0757982453459645, 0.12593187391757965, 0.04090492054820061, -0.07496394962072372, -0.6856597065925598, 0.2911372780799866, -0.6671654582023621, -0.13877254724502563, 0.012832969427108765, -0.17124396562576294, 0.08068730162111672, -0.3998835350877207, 0.7532058668852546,0.5160072164629609,-0.7916259765625,0.300689697265625,-0.8541412353515625
20230215-1533,2023-02-15 15:33:30Z,u02, 1064,100,movements,el-ex, lt, nd,281280.203351125, -0.7985877195263743, -0.2940543783652135, 1.0761998392677983, 0.08792376518249512, 0.040590401738882065, -0.03804934024810791, -0.6856223344802856, 0.2898349463939667, -0.6677706241607666, -0.14930802583694458, 0.022512376308441162, -0.12536591291427612, 0.08119603726983765, -0.3994019039753379, 0.7534114986858269,0.5160002989642313,-0.824432373046875,0.3039703369140625,-0.838409423828125
20230215-1533,2023-02-15 15:33:30Z,u02, 1065,100,movements,el-ex, lt, nd,281280.213374125, -0.7981441104101389, -0.29352409117657796, 1.076504867008859, 0.02809775248169899, 0.027521738782525063, 0.004167088307440281, -0.6854360103607178, 0.28932738304138184, -0.6681818962097168, -0.14577120542526245, 0.04946345090866089, -0.0762486457824707, 0.08135770508168302, -0.39911146602398795, 0.7535043215067324,0.516064033551265,-0.834930419921875,0.312347412109375,-0.7931365966796875
20230215-1533,2023-02-15 15:33:30Z,u02, 1066,100,movements,el-ex, lt, nd,281280.223397125, -0.7978555850376206, -0.29366405769857323, 1.0767177915146124, -0.020140882581472397, 0.022660404443740845, 0.04236001521348953, -0.6852142214775085, 0.2894613444805145, -0.668351411819458, -0.12612605094909668, 0.0693947970867157, -0.05409121513366699, 0.08126889567004504, -0.39902338439748164, 0.7534851659685683,0.5161742261122776,-0.831207275390625,0.3387908935546875,-0.7444305419921875
20230215-1533,2023-02-15 15:33:30Z,u02, 1067,100,movements,el-ex, lt, nd,281280.233419125, -0.7975358703173483, -0.2942534826618477, 1.0768606066098452, -0.05278343707323074, 0.029385153204202652, 0.05843762308359146, -0.6848782300949097, 0.2900255024433136, -0.6684511303901672, -0.08553791046142578, 0.059690624475479126, -0.041311442852020264, 0.08097565720936221, -0.3990205277593064, 0.7534197529038156,0.5163178212838496,-0.81134033203125,0.358856201171875,-0.722442626953125
20230215-1533,2023-02-15 15:33:30Z,u02, 1068,100,movements,el-ex, lt, nd,281280.24344212504, -0.7973625527721019, -0.2953604328427316, 1.0764653840901557, -0.15553058683872223, 0.023455092683434486, 0.03647879511117935, -0.6845322847366333, 0.2910847067832947, -0.6683451533317566, -0.0711745023727417, 0.061652690172195435, -0.031224548816680908, 0.08040266166748476, -0.39920274475280265, 0.7533831985495082,0.516320000805786,-0.770416259765625,0.3497161865234375,-0.7097625732421875
20230215-1533,2023-02-15 15:33:30Z,u02, 1069,100,movements,el-ex, lt, nd,281280.25346412504, -0.7975494163512518, -0.2966207070826689, 1.075221168840445, -0.18233269453048706, 0.01781265251338482, -0.021924832835793495, -0.6843940615653992, 0.2922901511192322, -0.6679604649543762, -0.13672709465026855, 0.08925577998161316, -0.06060093641281128, 0.07969071923457684, -0.3995862433353117, 0.753469382043182,0.5160077510703404,-0.755706787109375,0.3527374267578125,-0.6995697021484375
20230215-1533,2023-02-15 15:33:30Z,u02, 1070,100,movements,el-ex, lt, nd,281280.263487125, -0.7977595350391343, -0.29744905745384626, 1.073611353637849, -0.14769774675369263, 0.0357959158718586, -0.07337390631437302, -0.6843608617782593, 0.29308223724365234, -0.6676473617553711, -0.17266422510147095, 0.06923764944076538, -0.10023599863052368, 0.07908665119172428, -0.3999020240856014, 0.7537126663639473,0.5155005925741428,-0.8211212158203125,0.3815460205078125,-0.7285614013671875
20230215-1533,2023-02-15 15:33:30Z,u02, 1071,100,movements,el-ex, lt, nd,281280.273510125, -0.7976267137224831, -0.29749597307384, 1.0721701870080844, -0.04500814899802208, 0.07763604074716568, -0.10484988987445831, -0.6842623353004456, 0.2931270897388458, -0.6677286028862, -0.18265044689178467, 0.0124148428440094, -0.16691190004348755, 0.07874520510220594, -0.3999185900225246, 0.7541031185105304,0.5149686888007879,-0.857025146484375,0.3623199462890625,-0.76788330078125
20230215-1533,2023-02-15 15:33:30Z,u02, 1072,100,movements,el-ex, lt, nd,281280.283532125, -0.796679148748127, -0.2965447907447147, 1.0715799019752068, 0.0970696359872818, 0.14446860551834106, -0.10736657679080963, -0.6838283538818359, 0.29221755266189575, -0.6685712933540344, -0.1783999800682068, 0.002521127462387085, -0.2346116304397583, 0.07877002110426529, -0.3993865742385882, 0.7545932904024851,0.5146595392273587,-0.866912841796875,0.3055419921875,-0.8346405029296875
20230215-1533,2023-02-15 15:33:30Z,u02, 1073,100,movements,el-ex, lt, nd,281280.293555125, -0.7947883178945844, -0.2946911122421228, 1.072099793862233, 0.23504334688186646, 0.19988897442817688, -0.0792449563741684, -0.6829484105110168, 0.2904442846775055, -0.6702413558959961, -0.16283094882965088, 0.01290041208267212, -0.2349863052368164, 0.07914073994848948, -0.3982663070158415, 0.7551261933213279,0.5146892618780455,-0.8622283935546875,0.29473876953125,-0.9031829833984375
20230215-1533,2023-02-15 15:33:30Z,u02, 1074,100,movements,el-ex, lt, nd,281280.303578125, -0.7920839608524457, -0.29233522451115174, 1.0740172604764655, 0.34154555201530457, 0.22210267186164856, 0.004510662984102964, -0.6816185116767883, 0.288189172744751, -0.6725645661354065, -0.1599799394607544, 0.019702613353729248, -0.19567573070526123, 0.07978329588486584, -0.3966766124497948, 0.7555365943686382,0.5152150951951265,-0.8457794189453125,0.3033447265625,-0.9052276611328125
20230215-1533,2023-02-15 15:33:30Z,u02, 1075,100,movements,el-ex, lt, nd,281280.313600125, -0.7891435361893616, -0.29081030241118744, 1.0764091882720412, 0.15653346478939056, 0.23349541425704956, 0.10240137577056885, -0.6799490451812744, 0.2867285907268524, -0.6748747229576111, -0.1316506266593933, 0.05229109525680542, -0.12480789422988892, 0.08011854754438531, -0.3951501768288565, 0.7557385416253202,0.5160391807180154,-0.8415985107421875,0.307891845703125,-0.8682403564453125
20230215-1533,2023-02-15 15:33:30Z,u02, 1076,100,movements,el-ex, lt, nd,281280.32362312503, -0.7864747633580538, -0.29171119781278315, 1.0774772374378934, -0.13252577185630798, 0.23166288435459137, 0.16283197700977325, -0.6779624819755554, 0.2875915467739105, -0.6765042543411255, -0.04388505220413208, 0.1368468701839447, -0.01711452007293701, 0.07927411995044462, -0.3942885956275637, 0.755850069325126,0.5166650178382683,-0.8115997314453125,0.339019775390625,-0.7996826171875
20230215-1533,2023-02-15 15:33:30Z,u02, 1077,100,movements,el-ex, lt, nd,281280.33364512504, -0.784495689193134, -0.2947612210108469, 1.0767751287723402, -0.3749224543571472, 0.20849311351776123, 0.17009595036506653, -0.6759994626045227, 0.2905113697052002, -0.6772207021713257, -0.06133568286895752, 0.25341862440109253, -0.005945861339569092, 0.07738413778640865, -0.394209783522853, 0.7559487453023216,0.516867259964106,-0.7218475341796875,0.4244384765625,-0.6936187744140625
20230215-1533,2023-02-15 15:33:30Z,u02, 1078,100,movements,el-ex, lt, nd,281280.34366812505, -0.7828994067218207, -0.29899775189044936, 1.0747520541700633, -0.4698210060596466, 0.2302125245332718, 0.14402014017105103, -0.6740433573722839, 0.29456257820129395, -0.6774203777313232, -0.018339335918426514, 0.22983616590499878, -0.008401155471801758, 0.07484866196722204, -0.3945725525853756, 0.7561276859557143,0.5167020142110809,-0.737335205078125,0.5439300537109375,-0.68316650390625
20230215-1533,2023-02-15 15:33:30Z,u02, 1079,100,movements,el-ex, lt, nd,281280.353691125, -0.7810990525921928, -0.3026648353214735, 1.0724917757890593, -0.3297566771507263, 0.2651135325431824, 0.06575106829404831, -0.6720576882362366, 0.2980649769306183, -0.6778611540794373, 0.021194040775299072, 0.10829180479049683, -0.057551443576812744, 0.07244381656124346, -0.39474208742120526, 0.7564951811215629,0.516377374018667,-0.6923828125,0.5243988037109375,-0.685821533203125
20230215-1533,2023-02-15 15:33:30Z,u02, 1080,100,movements,el-ex, lt, nd,281280.363713125, -0.7788701600247459, -0.30460783513478074, 1.0709029609072007, -0.16169148683547974, 0.2680680453777313, -0.005783306434750557, -0.6701370477676392, 0.29991909861564636, -0.6789439916610718, -0.04308927059173584, 0.04082489013671875, -0.17467844486236572, 0.0707628039092385, -0.39436105091657947, 0.7570418049794423,0.516100521987831,-0.6508636474609375,0.4063568115234375,-0.73541259765625
20230215-1533,2023-02-15 15:33:30Z,u02, 1081,100,movements,el-ex, lt, nd,281280.373736125, -0.7766785738977501, -0.30496366971143035, 1.0700884687912215, 0.010059763677418232, 0.2118801325559616, -0.048301950097084045, -0.6685726046562195, 0.3002585172653198, -0.6803348064422607, -0.14758944511413574, -0.0675315260887146, -0.20603299140930176, 0.06989175157172076, -0.3936340146102106, 0.7576280709878728,0.5159137831632036,-0.713226318359375,0.3407440185546875,-0.8536224365234375
20230215-1533,2023-02-15 15:33:30Z,u02, 1082,100,movements,el-ex, lt, nd,281280.383759125, -0.7748124649749185, -0.30394458335369623, 1.0704950512162899, 0.18446539342403412, 0.13158902525901794, -0.03557869791984558, -0.6675155162811279, 0.2992863059043884, -0.6817995309829712, -0.22320091724395752, -0.11860707402229309, -0.1935209035873413, 0.06990624774930204, -0.39270008923759486, 0.7580485837482265,0.516005696847829,-0.816162109375,0.23272705078125,-0.8863677978515625
20230215-1533,2023-02-15 15:33:30Z,u02, 1083,100,movements,el-ex, lt, nd,281280.393781125, -0.7735421307439169, -0.3021963815758728, 1.071987826854617, 0.24755065143108368, 0.03924443945288658, 0.00014393078163266182, -0.6670134663581848, 0.29761776328086853, -0.683020293712616, -0.2243744134902954, -0.1108044683933258, -0.1549924612045288, 0.07058460334754732, -0.3918005544203474, 0.7581842121577009,0.5163979923247217,-0.890716552734375,0.1806793212890625,-0.8753204345703125
20230215-1533,2023-02-15 15:33:30Z,u02, 1084,100,movements,el-ex, lt, nd,281280.40380412503, -0.772928283729446, -0.300564513554139, 1.0738816187630018, 0.22836336493492126, -0.022296683862805367, 0.032700277864933014, -0.6669322848320007, 0.2960594594478607, -0.6837763786315918, -0.1634204387664795, -0.060295939445495605, -0.13272148370742798, 0.07146251187402035, -0.39115844632142777, 0.7580680961889882,0.5169342045348149,-0.891387939453125,0.1868133544921875,-0.8380126953125
20230215-1533,2023-02-15 15:33:30Z,u02, 1085,100,movements,el-ex, lt, nd,281280.41382612503, -0.772783900100718, -0.29947780464746726, 1.0756045127285618, 0.15227976441383362, -0.06105206906795502, 0.043701741844415665, -0.6670578122138977, 0.29502129554748535, -0.6841025948524475, -0.10605919361114502, 0.03586551547050476, -0.14715051651000977, 0.07220515395204236, -0.39081341017005433, 0.7578190370814052,0.5174568784901636,-0.830352783203125,0.2357635498046875,-0.816497802734375
20230215-1533,2023-02-15 15:33:30Z,u02, 1086,100,movements,el-ex, lt, nd,281280.42384912504, -0.7733078440552354, -0.29911930754256083, 1.076636191428858, 0.03150353580713272, -0.0982644185423851, 0.04621310159564018, -0.6674899458885193, 0.2946787476539612, -0.683828592300415, -0.07626914978027344, 0.10589498281478882, -0.13495802879333496, 0.07268853134623558, -0.3908990558310263, 0.7575050499921165,0.5177840514429347,-0.7731170654296875,0.3308868408203125,-0.8312530517578125
20230215-1533,2023-02-15 15:33:30Z,u02, 1087,100,movements,el-ex, lt, nd,281280.433872125, -0.7743444602515863, -0.29969697232279335, 1.0767740188819694, -0.0867248922586441, -0.11431582272052765, 0.0514039508998394, -0.6680793166160583, 0.2952306866645813, -0.6830145120620728, -0.025615692138671875, 0.13241207599639893, -0.09745728969573975, 0.07274845172327246, -0.3914082257495658, 0.7571771860037797,0.5178706130254369,-0.7437591552734375,0.40057373046875,-0.81878662109375
20230215-1533,2023-02-15 15:33:30Z,u02, 1088,100,movements,el-ex, lt, nd,281280.443894125, -0.7756923270656051, -0.30090558951166757, 1.0763154924159013, -0.13254137337207794, -0.12787823379039764, 0.05324313044548035, -0.6687489748001099, 0.2963852286338806, -0.6818581819534302, -0.005704700946807861, 0.119813472032547, -0.07719027996063232, 0.07251511641429126, -0.3921893237367964, 0.7568442663226012,0.517799062402766,-0.693695068359375,0.427642822265625,-0.7804718017578125
20230215-1533,2023-02-15 15:33:30Z,u02, 1089,100,movements,el-ex, lt, nd,281280.453917125, -0.7771296101564615, -0.30221978372579045, 1.075690136813773, -0.13463479280471802, -0.12380865961313248, 0.04637360945343971, -0.6694545745849609, 0.2976401150226593, -0.6806179881095886, -0.04268831014633179, 0.11015099287033081, -0.10537749528884888, 0.0722289368651438, -0.39303178099625574, 0.7565194764820081,0.5176748190807304,-0.6744537353515625,0.41619873046875,-0.7590484619140625
20230215-1533,2023-02-15 15:33:30Z,u02, 1090,100,movements,el-ex, lt, nd,281280.463940125, -0.7783463186834759, -0.30331533832695634, 1.075315089863044, -0.06368470937013626, -0.09322438389062881, 0.058736804872751236, -0.6700528264045715, 0.29868584871292114, -0.6795703172683716, -0.08652365207672119, 0.06422916054725647, -0.12279784679412842, 0.07202371055005527, -0.39373521746272516, 0.7562062987245969,0.5176262999985118,-0.7121429443359375,0.4077911376953125,-0.7859954833984375
20230215-1533,2023-02-15 15:33:30Z,u02, 1091,100,movements,el-ex, lt, nd,281280.473962125, -0.7789679071634651, -0.30388237587212785, 1.0758086220239726, 0.04610370844602585, -0.06585907191038132, 0.08644665032625198, -0.6703560948371887, 0.29922693967819214, -0.679033100605011, -0.111977219581604, 0.0504281222820282, -0.1483442187309265, 0.07205076515080813, -0.39407123060496013, 0.7558677036805918,0.5178615014555114,-0.7565765380859375,0.3629150390625,-0.8023681640625
20230215-1533,2023-02-15 15:33:30Z,u02, 1092,100,movements,el-ex, lt, nd,281280.483985125, -0.7793748789226875, -0.3042612709954695, 1.0769066804345397, 0.03984661027789116, -0.07318569719791412, 0.11654649674892426, -0.6705526113510132, 0.29958847165107727, -0.6786795258522034, -0.12705475091934204, 0.037661224603652954, -0.14482206106185913, 0.07221829513165909, -0.3942648420304231, 0.7554437062547877,0.5183091775164171,-0.7823333740234375,0.3496551513671875,-0.8273773193359375
20230215-1533,2023-02-15 15:33:30Z,u02, 1093,100,movements,el-ex, lt, nd,281280.49400712503, -0.7797773495017041, -0.30503221711219247, 1.0779846198453962, 0.0019995542243123055, -0.0746576264500618, 0.1355673223733902, -0.6706631183624268, 0.3003239035606384, -0.6782451868057251, -0.10858792066574097, 0.055724650621414185, -0.1460040807723999, 0.07222126550911419, -0.39453960514507946, 0.7549642742754802,0.5187981770573508,-0.797607421875,0.337249755859375,-0.8235015869140625
20230215-1533,2023-02-15 15:33:30Z,u02, 1094,100,movements,el-ex, lt, nd,281280.50403012504, -0.7802689338076475, -0.3061032080565271, 1.0789567288392574, -0.02676018700003624, -0.08123456686735153, 0.14113573729991913, -0.6707698106765747, 0.3013452887535095, -0.6776863932609558, -0.10379678010940552, 0.1112217903137207, -0.1707633137702942, 0.07210475135858331, -0.3949148044397104, 0.7544469160788425,0.5192812397551302,-0.7792510986328125,0.356048583984375,-0.824249267578125
20230215-1533,2023-02-15 15:33:30Z,u02, 1095,100,movements,el-ex, lt, nd,281280.514053125, -0.7808650648146429, -0.30747703110956026, 1.0795458668642908, -0.07808995246887207, -0.07421047985553741, 0.13020531833171844, -0.6708816289901733, 0.3026549518108368, -0.6769917011260986, -0.08812099695205688, 0.13740846514701843, -0.15409350395202637, 0.07181689386898205, -0.395406729771893, 0.7539601014915832,0.5196536557870307,-0.774566650390625,0.412567138671875,-0.84844970703125
20230215-1533,2023-02-15 15:33:30Z,u02, 1096,100,movements,el-ex, lt, nd,281280.524075125, -0.7814515607700874, -0.30886527226234234, 1.0797997210299999, -0.08041302859783173, -0.05697876214981079, 0.10148338228464127, -0.6709819436073303, 0.3039777874946594, -0.6762991547584534, -0.09651976823806763, 0.08565530180931091, -0.14540183544158936, 0.07145466204239798, -0.395909892233925, 0.7535593039252334,0.5199016996256611,-0.759002685546875,0.4400634765625,-0.831085205078125
20230215-1533,2023-02-15 15:33:30Z,u02, 1097,100,movements,el-ex, lt, nd,281280.534098125, -0.7817559749580224, -0.3097784681576404, 1.0801101541649318, -0.0024507022462785244, -0.019924605265259743, 0.07431157678365707, -0.6709920167922974, 0.3048476576805115, -0.6758976578712463, -0.10033977031707764, 0.08411407470703125, -0.16551780700683594, 0.07122368323114928, -0.39620494422183955, 0.753274344945615,0.5201217317213196,-0.7675018310546875,0.3896331787109375,-0.8217010498046875
20230215-1533,2023-02-15 15:33:30Z,u02, 1098,100,movements,el-ex, lt, nd,281280.544120125, -0.781409383657475, -0.30993122833855324, 1.0809424494892304, 0.08898493647575378, 0.03781832009553909, 0.05868149176239967, -0.6707249283790588, 0.3049931526184082, -0.6760970950126648, -0.09598344564437866, 0.06674143671989441, -0.1883743405342102, 0.07123622773109889, -0.39607681939489825, 0.7531023313630134,0.5204665614535503,-0.771331787109375,0.3889617919921875,-0.8414154052734375
20230215-1533,2023-02-15 15:33:30Z,u02, 1099,100,movements,el-ex, lt, nd,281280.554143125, -0.780441091401028, -0.3094226088076459, 1.0821919627945147, 0.14680325984954834, 0.07509937882423401, 0.03664175420999527, -0.6701789498329163, 0.3045087158679962, -0.6768563985824585, -0.09620893001556396, 0.02096119523048401, -0.165566086769104, 0.07143832420477954, -0.3955608372661507, 0.7530489488029426,0.5209082746281507,-0.7667083740234375,0.371734619140625,-0.864471435546875
20230215-1533,2023-02-15 15:33:30Z,u02, 1100,100,movements,el-ex, lt, nd,281280.564166125, -0.7793093900646356, -0.30859098420631764, 1.0834636006739953, 0.12832652032375336, 0.06827662885189056, 0.020122963935136795, -0.6695902943611145, 0.3037164807319641, -0.6777942776679993, -0.133433997631073, 0.0411626398563385, -0.14499014616012573, 0.07173296831209008, -0.39491421458155435, 0.7530724058802251,0.5213242571149916,-0.766387939453125,0.325469970703125,-0.8424224853515625
20230215-1533,2023-02-15 15:33:30Z,u02, 1101,100,movements,el-ex, lt, nd,281280.574188125, -0.7784921259982318, -0.3081944040062681, 1.0841774933858241, 0.017281096428632736, 0.04802168905735016, 0.01785499043762684, -0.6691206097602844, 0.3033386170864105, -0.67842698097229, -0.1570817232131958, 0.0644744336605072, -0.11203926801681519, 0.07182205239603726, -0.3944972806888681, 0.753110005366105,0.5215732060802099,-0.8030242919921875,0.344879150390625,-0.822784423828125
20230215-1533,2023-02-15 15:33:30Z,u02, 1102,100,movements,el-ex, lt, nd,281280.58421112504, -0.7781870149781691, -0.30848442292182565, 1.083976265296199, -0.07740413397550583, 0.029293540865182877, -0.0063355667516589165, -0.6688518524169922, 0.30361494421958923, -0.678568422794342, -0.16208070516586304, 0.07017955183982849, -0.08981841802597046, 0.07158484829258098, -0.39445074474831593, 0.7531770329109716,0.5215443049172229,-0.826202392578125,0.3678131103515625,-0.79046630859375
20230215-1533,2023-02-15 15:33:30Z,u02, 1103,100,movements,el-ex, lt, nd,281280.594234125, -0.7782438744681872, -0.3091575614405475, 1.0829870673364206, -0.15228545665740967, 0.019698170945048332, -0.028636369854211807, -0.6687467694282532, 0.30425626039505005, -0.6783846616744995, -0.17564404010772705, 0.10335168242454529, -0.11592680215835571, 0.07113077349298519, -0.39464929818208816, 0.753317544061214,0.5212531313905103,-0.8309326171875,0.3737945556640625,-0.7683868408203125
20230215-1533,2023-02-15 15:33:30Z,u02, 1104,100,movements,el-ex, lt, nd,281280.604256125, -0.778456000916056, -0.31019679030564484, 1.0814371874219815, -0.1915559023618698, 0.03161661699414253, -0.03713345155119896, -0.6686683297157288, 0.3052460551261902, -0.6780173778533936, -0.16359180212020874, 0.11824634671211243, -0.14249348640441895, 0.07045722302520555, -0.3950026564341463, 0.7535156823175053,0.5207905299015037,-0.844390869140625,0.4076080322265625,-0.7943115234375
20230215-1533,2023-02-15 15:33:30Z,u02, 1105,100,movements,el-ex, lt, nd,281280.614279125, -0.7784875326541898, -0.3111475799572357, 1.0798868994680573, -0.13468332588672638, 0.05637709051370621, -0.04274806007742882, -0.6684855222702026, 0.30615130066871643, -0.6777892708778381, -0.1455402970314026, 0.10304361581802368, -0.1593230962753296, 0.06977218398558512, -0.39526850645031325, 0.7537627922029311,0.5203230967996669,-0.8322601318359375,0.423492431640625,-0.8205108642578125
20230215-1533,2023-02-15 15:33:30Z,u02, 1106,100,movements,el-ex, lt, nd,281280.624301125, -0.7780068844950616, -0.31147735734658494, 1.0789682511322167, -0.04010888189077377, 0.09787633270025253, -0.03559214621782303, -0.6680887937545776, 0.3064652383327484, -0.6780385971069336, -0.1674366593360901, 0.1070784330368042, -0.2212228775024414, 0.06933133837828737, -0.39518839464008654, 0.7540447311261775,0.520034376523003,-0.81402587890625,0.4091949462890625,-0.8371124267578125
20230215-1533,2023-02-15 15:33:30Z,u02, 1107,100,movements,el-ex, lt, nd,281280.634324125, -0.7769165272453641, -0.3113223247700968, 1.0786774426191597, 0.025522001087665558, 0.13520638644695282, -0.02339431270956993, -0.6673824191093445, 0.30631765723228455, -0.6788005232810974, -0.16132235527038574, 0.06846863031387329, -0.2240467667579651, 0.0690535822931087, -0.3947548010421895, 0.7543600511919398,0.5199432537676321,-0.8355255126953125,0.413543701171875,-0.899261474609375
20230215-1533,2023-02-15 15:33:30Z,u02, 1108,100,movements,el-ex, lt, nd,281280.644347125, -0.7753196483935552, -0.31087144052570687, 1.0789168792848307, 0.059078097343444824, 0.16653262078762054, -0.005760722793638706, -0.6663942337036133, 0.30588841438293457, -0.679964005947113, -0.17146587371826172, 0.046406447887420654, -0.20559513568878174, 0.06886925393429882, -0.3940495322557112, 0.7546838989593468,0.5200329186817638,-0.828704833984375,0.374786376953125,-0.9028472900390625
20230215-1533,2023-02-15 15:33:30Z,u02, 1109,100,movements,el-ex, lt, nd,281280.654369125, -0.7732586598642036, -0.310511395191212, 1.0794144184799204, 0.055595289915800095, 0.21037544310092926, 0.021255288273096085, -0.6650683283805847, 0.3055456280708313, -0.6814147233963013, -0.16179019212722778, 0.07938781380653381, -0.18102729320526123, 0.06857786972107574, -0.3931789747415014, 0.7550167404712818,0.5202471659879034,-0.837860107421875,0.352294921875,-0.88555908203125
20230215-1533,2023-02-15 15:33:30Z,u02, 1110,100,movements,el-ex, lt, nd,281280.66439212504, -0.7707687852230328, -0.31040883695211635, 1.080029165989151, 0.04371732473373413, 0.2443792223930359, 0.04299973323941231, -0.6633913516998291, 0.3054479658603668, -0.6830909848213196, -0.12672388553619385, 0.0822625458240509, -0.16111677885055542, 0.06809255045273523, -0.39219626980646155, 0.7553615648672948,0.5205518033417937,-0.8268585205078125,0.3849334716796875,-0.8624420166015625
20230215-1533,2023-02-15 15:33:30Z,u02, 1111,100,movements,el-ex, lt, nd,281280.67441512505, -0.7679994471687879, -0.31045361492082924, 1.0807562193485976, 0.0489983931183815, 0.26361894607543945, 0.06080495938658714, -0.6614876985549927, 0.3054905831813812, -0.6849157214164734, -0.12289035320281982, 0.089711993932724, -0.1715448498725891, 0.06749557097704595, -0.3911348576419603, 0.7557077953049602,0.5209257728762215,-0.7901153564453125,0.3877105712890625,-0.844207763671875
20230215-1533,2023-02-15 15:33:30Z,u02, 1112,100,movements,el-ex, lt, nd,281280.684437125, -0.7650691656327927, -0.31055511924034357, 1.0816150014303876, 0.04687532037496567, 0.2641739547252655, 0.07008235156536102, -0.6594563722610474, 0.3055872619152069, -0.6868287920951843, -0.11042582988739014, 0.0805821418762207, -0.17257678508758545, 0.06685835807397655, -0.3900199716225956, 0.7560403494927783,0.521361097508336,-0.7843780517578125,0.39520263671875,-0.8564605712890625
20230215-1533,2023-02-15 15:33:30Z,u02, 1113,100,movements,el-ex, lt, nd,281280.694460125, -0.7621177009262637, -0.31059029888037104, 1.0825565833355273, 0.06744398176670074, 0.25889796018600464, 0.06352351605892181, -0.6574189066886902, 0.3056207299232483, -0.6887643337249756, -0.12070304155349731, 0.08889520168304443, -0.17578339576721191, 0.06625767478466715, -0.38888014448198277, 0.7563638547288692,0.5218196031237411,-0.7698822021484375,0.38616943359375,-0.859405517578125
20230215-1533,2023-02-15 15:33:30Z,u02, 1114,100,movements,el-ex, lt, nd,281280.704482125, -0.7592963493355234, -0.3106423717608263, 1.0835536065400235, 0.04621485620737076, 0.23934584856033325, 0.08071368932723999, -0.6554620862007141, 0.3056703209877014, -0.6906048655509949, -0.1423131227493286, 0.09520852565765381, -0.16802245378494263, 0.06569352460587682, -0.387791076070079, 0.7566434794137487,0.5222960309250566,-0.7781219482421875,0.3945159912109375,-0.8645477294921875
20230215-1533,2023-02-15 15:33:30Z,u02, 1115,100,movements,el-ex, lt, nd,281280.714505125, -0.7568023063027373, -0.31114799099808926, 1.0843657313563544, -0.013033514842391014, 0.21356484293937683, 0.10495942085981369, -0.6536314487457275, 0.30615171790122986, -0.6921249628067017, -0.12473458051681519, 0.060898393392562866, -0.13262778520584106, 0.06499302161989921, -0.38692818588509925, 0.7568353221770134,0.5227452395868214,-0.7977752685546875,0.40087890625,-0.8586273193359375
20230215-1533,2023-02-15 15:33:31Z,u02, 1116,100,movements,el-ex, lt, nd,281280.724528125, -0.754490247406577, -0.31208746649455227, 1.0850731973553467, -0.024480314925312996, 0.19919948279857635, 0.1144847497344017, -0.6518321633338928, 0.30704593658447266, -0.6934245228767395, -0.1123126745223999, 0.053244560956954956, -0.10604453086853027, 0.06414188107759435, -0.3862299444120825, 0.7569508938078274,0.5231992612707577,-0.7783660888671875,0.3670501708984375,-0.8247528076171875
20230215-1533,2023-02-15 15:33:31Z,u02, 1117,100,movements,el-ex, lt, nd,281280.734550125, -0.752399074401933, -0.31307139604196804, 1.085792126231128, -0.01517762616276741, 0.17357614636421204, 0.1172669529914856, -0.6501739025115967, 0.3079821765422821, -0.6945651769638062, -0.14850157499313354, 0.08485528826713562, -0.15243488550186157, 0.06333181935895126, -0.3856248088053184, 0.7570129315249849,0.5236543263856731,-0.7641448974609375,0.36029052734375,-0.799468994140625
20230215-1533,2023-02-15 15:33:31Z,u02, 1118,100,movements,el-ex, lt, nd,281280.74457312503, -0.7504539183240004, -0.3138685778835756, 1.0866649899013214, 0.016794955357909203, 0.15717720985412598, 0.10900156944990158, -0.6486539840698242, 0.3087405264377594, -0.6956487894058228, -0.1587342619895935, 0.09433561563491821, -0.19554078578948975, 0.06266509391182522, -0.385030766562045, 0.7570349328441921,0.524139739574154,-0.798675537109375,0.3928375244140625,-0.8470001220703125
20230215-1533,2023-02-15 15:33:31Z,u02, 1119,100,movements,el-ex, lt, nd,281280.75459512504, -0.7487745954232738, -0.3142241834408125, 1.0877465426285662, 0.06595614552497864, 0.10914655774831772, 0.08557241410017014, -0.6474100947380066, 0.30907872319221497, -0.6966565847396851, -0.17981457710266113, 0.07507646083831787, -0.20394760370254517, 0.062287733679411234, -0.3844371651134695, 0.757018893849297,0.524643236392319,-0.8073883056640625,0.403076171875,-0.8911895751953125
20230215-1533,2023-02-15 15:33:31Z,u02, 1120,100,movements,el-ex, lt, nd,281280.76461812505, -0.7475565517130405, -0.3140724841289408, 1.088913656655902, 0.10458076745271683, 0.05607055872678757, 0.051566507667303085, -0.646592915058136, 0.30893445014953613, -0.6974790692329407, -0.1978132128715515, 0.07432049512863159, -0.19946306943893433, 0.06225413690192751, -0.3839073897271084, 0.7569703122373822,0.5251051907872433,-0.8272247314453125,0.3841552734375,-0.900604248046875
20230215-1533,2023-02-15 15:33:31Z,u02, 1121,100,movements,el-ex, lt, nd,281280.774641125, -0.7468161982641216, -0.31326051548853256, 1.0901845688070801, 0.18483953177928925, 0.009735817089676857, 0.008571850135922432, -0.6462465524673462, 0.3081620931625366, -0.6981413960456848, -0.21592074632644653, 0.07721379399299622, -0.2088867425918579, 0.06263479322073544, -0.3834138396569579, 0.7569047641141597,0.5255147478524559,-0.8444061279296875,0.3832550048828125,-0.896942138671875
20230215-1533,2023-02-15 15:33:31Z,u02, 1122,100,movements,el-ex, lt, nd,281280.784663125, -0.7464724956439105, -0.31152655216775066, 1.0916488625188487, 0.2553994655609131, -0.03169950470328331, -0.04048730432987213, -0.6463684439659119, 0.3065120577812195, -0.6987546682357788, -0.23703908920288086, 0.09061312675476074, -0.24567276239395142, 0.06353221093537054, -0.3828659172929922, 0.7568551090040452,0.5258778673988201,-0.8621673583984375,0.3853759765625,-0.9070281982421875
20230215-1533,2023-02-15 15:33:31Z,u02, 1123,100,movements,el-ex, lt, nd,281280.794685375, -0.746476368611204, -0.30907467865598487, 1.0931747754936296, 0.2987945079803467, -0.05444822832942009, -0.07406166940927505, -0.6468794941902161, 0.30417728424072266, -0.6993017792701721, -0.23722988367080688, 0.09674730896949768, -0.2855157256126404, 0.0648247199812355, -0.38229159347857194, 0.7568332114278401,0.5261694217988929,-0.8834075927734375,0.397125244140625,-0.944427490234375
20230215-1533,2023-02-15 15:33:31Z,u02, 1124,100,movements,el-ex, lt, nd,281280.804708375, -0.7463736887146316, -0.3062601764421756, 1.094737197932865, 0.3131880760192871, -0.029642747715115547, -0.09188007563352585, -0.6473864912986755, 0.3014949560165405, -0.6999939680099487, -0.18636900186538696, 0.10950049757957458, -0.26895439624786377, 0.06624291249506038, -0.38159518140983095, 0.7568770059879011,0.5264354033254821,-0.8841094970703125,0.4009246826171875,-0.9848175048828125
20230215-1533,2023-02-15 15:33:31Z,u02, 1125,100,movements,el-ex, lt, nd,281280.814730375, -0.7460835361731166, -0.30332276767841454, 1.0962829953546003, 0.3151394724845886, -0.01088770292699337, -0.09197385609149933, -0.6477816104888916, 0.2986929416656494, -0.7008290886878967, -0.12921112775802612, 0.0992715060710907, -0.22617286443710327, 0.06765753395147237, -0.3807990441866166, 0.756978010639182,0.5266865393656837,-0.8337554931640625,0.4109954833984375,-0.9689483642578125
20230215-1533,2023-02-15 15:33:31Z,u02, 1126,100,movements,el-ex, lt, nd,281280.824753375, -0.7456762118763497, -0.30047289742777455, 1.0978512929977216, 0.30666688084602356, -0.013195064850151539, -0.07881596684455872, -0.6480709910392761, 0.29597195982933044, -0.7017154097557068, -0.11515825986862183, 0.11026272177696228, -0.2194119095802307, 0.06900865827081072, -0.3799738312541377, 0.7570802832764627,0.5269601561133974,-0.7769927978515625,0.3979644775390625,-0.927001953125
20230215-1533,2023-02-15 15:33:31Z,u02, 1127,100,movements,el-ex, lt, nd,281280.834775375, -0.7452737989351332, -0.29790295565884234, 1.0994463011175353, 0.2793426513671875, -0.02201412245631218, -0.05566905438899994, -0.6483023166656494, 0.2935161888599396, -0.7025328278541565, -0.11674284934997559, 0.11465638875961304, -0.20972919464111328, 0.07025098059811205, -0.37920758074777344, 0.7571300920316058,0.5272764291591484,-0.7632293701171875,0.4062347412109375,-0.9211273193359375
20230215-1533,2023-02-15 15:33:31Z,u02, 1128,100,movements,el-ex, lt, nd,281280.84479837504, -0.7449880155119193, -0.2958496913824548, 1.1009887721575717, 0.23484604060649872, -0.040521759539842606, -0.02672022581100464, -0.6485087275505066, 0.29155272245407104, -0.7031596302986145, -0.10446667671203613, 0.11396479606628418, -0.17925620079040527, 0.0713028879469741, -0.3785975342854472, 0.7570912400382852,0.5276293149525659,-0.765045166015625,0.408172607421875,-0.912261962890625
20230215-1533,2023-02-15 15:33:31Z,u02, 1129,100,movements,el-ex, lt, nd,281280.854821375, -0.7450890277490652, -0.2940100237878816, 1.1024897800039444, 0.2356012761592865, -0.08920834213495255, -0.02595004066824913, -0.6489422917366028, 0.2897925078868866, -0.7034870982170105, -0.12518179416656494, 0.12546014785766602, -0.1747172474861145, 0.07236138208099571, -0.3781802066466018, 0.7569565151297621,0.5279775734544664,-0.7529754638671875,0.405517578125,-0.882415771484375
20230215-1533,2023-02-15 15:33:31Z,u02, 1130,100,movements,el-ex, lt, nd,281280.864843375, -0.7457253618627002, -0.2921745175950503, 1.1039403065742828, 0.22398297488689423, -0.12987081706523895, -0.025921544060111046, -0.6497496962547302, 0.2880352735519409, -0.703463613986969, -0.16108709573745728, 0.1379290521144867, -0.19669818878173828, 0.07354933814270513, -0.3779665113189699, 0.7567328398155375,0.5282871003692902,-0.7741241455078125,0.415252685546875,-0.878204345703125
20230215-1533,2023-02-15 15:33:31Z,u02, 1131,100,movements,el-ex, lt, nd,281280.874866375, -0.7467469829126873, -0.29033048176562387, 1.1052534351863508, 0.22746628522872925, -0.1495150923728943, -0.046189770102500916, -0.6508277058601379, 0.2862688899040222, -0.7031880617141724, -0.15225762128829956, 0.1130535900592804, -0.19221293926239014, 0.07481617535144262, -0.3779001285666473, 0.7564733588607458,0.5285282384752434,-0.8108367919921875,0.42596435546875,-0.9001617431640625
20230215-1533,2023-02-15 15:33:31Z,u02, 1132,100,movements,el-ex, lt, nd,281280.884889375, -0.7479768483191348, -0.28805866078978337, 1.1065800899822233, 0.27289316058158875, -0.173557311296463, -0.07798206061124802, -0.6521326899528503, 0.28409141302108765, -0.702862024307251, -0.13224536180496216, 0.10467198491096497, -0.19484305381774902, 0.07631380857353409, -0.377816340835242, 0.756235495711102,0.5287143375616767,-0.8030853271484375,0.399322509765625,-0.8954010009765625
20230215-1533,2023-02-15 15:33:31Z,u02, 1133,100,movements,el-ex, lt, nd,281280.894911375, -0.749429455522009, -0.28541833748819856, 1.1078129675378587, 0.27136966586112976, -0.18636737763881683, -0.10917755216360092, -0.6536616683006287, 0.28155890107154846, -0.7024606466293335, -0.12650495767593384, 0.09896475076675415, -0.2114492654800415, 0.07800148548960167, -0.3777372586835824, 0.756035657526479,0.5288102890079447,-0.7843780517578125,0.388763427734375,-0.897705078125
20230215-1533,2023-02-15 15:33:31Z,u02, 1134,100,movements,el-ex, lt, nd,281280.904934375, -0.7510774479424261, -0.2826431616814806, 1.1087666271884642, 0.256116658449173, -0.20268510282039642, -0.13717669248580933, -0.6553491353988647, 0.27889490127563477, -0.7019509077072144, -0.09872496128082275, 0.06277984380722046, -0.17600929737091064, 0.07974202910097136, -0.37771120139435665, 0.7558924480375074,0.5287739665458472,-0.7801666259765625,0.380523681640625,-0.913909912109375
20230215-1533,2023-02-15 15:33:31Z,u02, 1135,100,movements,el-ex, lt, nd,281280.914956375, -0.7532680304834226, -0.2798202178277024, 1.109256977286764, 0.2189350128173828, -0.2621572017669678, -0.1776770055294037, -0.6574211716651917, 0.2761828601360321, -0.7010852098464966, -0.10683053731918335, 0.07063412666320801, -0.15662658214569092, 0.08155699291500647, -0.3778966252088459, 0.7557758836178895,0.528531420484193,-0.7540740966796875,0.3416748046875,-0.877960205078125
20230215-1533,2023-02-15 15:33:31Z,u02, 1136,100,movements,el-ex, lt, nd,281280.92497937504, -0.7561885848914441, -0.2773168174441901, 1.1091344323189125, 0.12563595175743103, -0.3168468177318573, -0.18573307991027832, -0.6599382162094116, 0.27377596497535706, -0.6996629238128662, -0.1362500786781311, 0.09177881479263306, -0.1367933750152588, 0.08331866024113557, -0.3784528273528375, 0.7556337827514803,0.5280615305268977,-0.764251708984375,0.3468170166015625,-0.8577117919921875
20230215-1533,2023-02-15 15:33:31Z,u02, 1137,100,movements,el-ex, lt, nd,281280.93500237504, -0.7599338023694789, -0.27528352641992876, 1.1083373607414608, 0.07042790204286575, -0.3905804455280304, -0.2034696787595749, -0.6629360914230347, 0.2718198001384735, -0.6975885033607483, -0.12450891733169556, 0.06742879748344421, -0.09689086675643921, 0.08497848056819178, -0.3794527890625121, 0.7554411815355431,0.5273545195550856,-0.7961883544921875,0.3655548095703125,-0.836456298828125
20230215-1533,2023-02-15 15:33:31Z,u02, 1138,100,movements,el-ex, lt, nd,281280.945024375, -0.7644906543233766, -0.2733681010950786, 1.107197097313874, 0.05055113136768341, -0.4555128216743469, -0.21760892868041992, -0.6664671301841736, 0.2699759900569916, -0.6949348449707031, -0.15912485122680664, 0.06939470767974854, -0.11547470092773438, 0.08673692565284938, -0.38080085307914857, 0.7551644672278883,0.5264921030331791,-0.787445068359375,0.3392486572265625,-0.7944793701171875
20230215-1533,2023-02-15 15:33:31Z,u02, 1139,100,movements,el-ex, lt, nd,281280.955047375, -0.7697093048603215, -0.2715023680049289, 1.1058025061784447, 0.03842935338616371, -0.5153482556343079, -0.23570379614830017, -0.6704340577125549, 0.2681790590286255, -0.6918078660964966, -0.1678532361984253, 0.060586750507354736, -0.1166791319847107, 0.08859745393367453, -0.3824219799904108, 0.7548171913454063,0.5255043608753209,-0.825592041015625,0.3393707275390625,-0.8104095458984375
20230215-1533,2023-02-15 15:33:31Z,u02, 1140,100,movements,el-ex, lt, nd,281280.965070375, -0.7754762674576053, -0.2695892826267708, 1.1043124619784053, 0.033390916883945465, -0.5531771183013916, -0.23667745292186737, -0.6747704744338989, 0.2663355767726898, -0.6882951259613037, -0.1688116192817688, 0.04633224010467529, -0.12295371294021606, 0.09059843780193648, -0.38424519936271473, 0.7543921284379863,0.5244425617721057,-0.838287353515625,0.328765869140625,-0.8084869384765625
20230215-1533,2023-02-15 15:33:31Z,u02, 1141,100,movements,el-ex, lt, nd,281280.975092375, -0.7814760335839306, -0.2676784268981409, 1.1029041334251657, 0.05016369745135307, -0.5678101181983948, -0.22596366703510284, -0.679245114326477, 0.26449325680732727, -0.6845943331718445, -0.13938891887664795, 0.04074352979660034, -0.1339024305343628, 0.09267030268349671, -0.38615418615371166, 0.7538947365123234,0.5233926973350483,-0.8435821533203125,0.3126678466796875,-0.811248779296875
20230215-1533,2023-02-15 15:33:31Z,u02, 1142,100,movements,el-ex, lt, nd,281280.985115375, -0.7874365510484481, -0.26577734454139584, 1.101697895008562, 0.05370969697833061, -0.5544804334640503, -0.20454971492290497, -0.6836685538291931, 0.2626594007015228, -0.6808871030807495, -0.10629409551620483, 0.0413871705532074, -0.1635342836380005, 0.09476221341551397, -0.38804198700053, 0.7533443818392557,0.5224132620784429,-0.818634033203125,0.30523681640625,-0.8184967041015625
20230215-1533,2023-02-15 15:33:31Z,u02, 1143,100,movements,el-ex, lt, nd,281280.995137375, -0.7931435704517759, -0.2641680911379622, 1.1005655930728568, 0.009439418092370033, -0.527675986289978, -0.17505908012390137, -0.6878436207771301, 0.26110631227493286, -0.6772700548171997, -0.0606151819229126, 0.06778159737586975, -0.1675175428390503, 0.0966801039904679, -0.38989477585648863, 0.7527743903030365,0.5215034240793293,-0.7899627685546875,0.304046630859375,-0.84442138671875
20230215-1533,2023-02-15 15:33:31Z,u02, 1144,100,movements,el-ex, lt, nd,281281.00516037503, -0.7986851179258182, -0.2630340561111706, 1.0992991827765977, -0.017911512404680252, -0.5093819499015808, -0.15953470766544342, -0.6917977929115295, 0.2600114345550537, -0.6736540794372559, -0.039693236351013184, 0.06893748044967651, -0.13506174087524414, 0.09833323362480034, -0.39179528662787505, 0.752193692014138,0.520606979659395,-0.7484588623046875,0.328887939453125,-0.84478759765625
20230215-1533,2023-02-15 15:33:31Z,u02, 1145,100,movements,el-ex, lt, nd,281281.01518337504, -0.8041117906426309, -0.26209294132790856, 1.0979917063751126, -0.028159547597169876, -0.5036726593971252, -0.15027804672718048, -0.6956192255020142, 0.25910258293151855, -0.6700594425201416, -0.07951194047927856, 0.07018205523490906, -0.1255033016204834, 0.0998667607118563, -0.393696453652381, 0.7516114878268413,0.519720955435735,-0.7314910888671875,0.328948974609375,-0.8087158203125
20230215-1533,2023-02-15 15:33:31Z,u02, 1146,100,movements,el-ex, lt, nd,281281.02520537504, -0.8093505670192452, -0.26129178519208296, 1.0968154288516183, -0.014693805016577244, -0.4830099642276764, -0.1244586929678917, -0.6992700099945068, 0.25832870602607727, -0.6665490865707397, -0.10756891965866089, 0.05763500928878784, -0.12583982944488525, 0.10131731098535143, -0.3955505655454705, 0.7510055709223517,0.5189076581243848,-0.7751312255859375,0.32928466796875,-0.795562744140625
20230215-1533,2023-02-15 15:33:31Z,u02, 1147,100,movements,el-ex, lt, nd,281281.035228375, -0.8142046011529567, -0.26033377036509625, 1.0961629704510698, 0.05788226053118706, -0.4508107602596283, -0.10137572139501572, -0.7026768922805786, 0.25740307569503784, -0.663316547870636, -0.09969127178192139, 0.023831605911254883, -0.1273176074028015, 0.10283185388599254, -0.3971993481824852, 0.750359353988633,0.5182848092386604,-0.8068389892578125,0.3159637451171875,-0.792388916015625
20230215-1533,2023-02-15 15:33:31Z,u02, 1148,100,movements,el-ex, lt, nd,281281.045251375, -0.8185304194577282, -0.25904824793434145, 1.0962358249326025, 0.13261215388774872, -0.419045627117157, -0.07795242220163345, -0.7057806849479675, 0.2561606764793396, -0.6604962348937988, -0.1030876636505127, 0.03517535328865051, -0.13485288619995117, 0.10448347685079976, -0.39854118093460544, 0.7496768779754446,0.5179118057764754,-0.8023681640625,0.2812347412109375,-0.7906341552734375
20230215-1533,2023-02-15 15:33:31Z,u02, 1149,100,movements,el-ex, lt, nd,281281.055273375, -0.822382375234165, -0.257418400742602, 1.0970681131449298, 0.19422513246536255, -0.3943309783935547, -0.054161570966243744, -0.7086246013641357, 0.2545848786830902, -0.6580559611320496, -0.09139364957809448, 0.022392630577087402, -0.11855536699295044, 0.1063011814265705, -0.39958989134516204, 0.7489428919445591,0.517795749804633,-0.808868408203125,0.2913360595703125,-0.79534912109375
20230215-1533,2023-02-15 15:33:31Z,u02, 1150,100,movements,el-ex, lt, nd,281281.065296375, -0.8259201314053934, -0.2557465146079242, 1.098294133874656, 0.20444154739379883, -0.36798298358917236, -0.029206154868006706, -0.7112601399421692, 0.2529677152633667, -0.6558325290679932, -0.08071672916412354, 0.04038247466087341, -0.10294127464294434, 0.1081328139075645, -0.4004885020371051, 0.7481746576241058,0.5178328129316875,-0.800018310546875,0.2769775390625,-0.776611328125
20230215-1533,2023-02-15 15:33:31Z,u02, 1151,100,movements,el-ex, lt, nd,281281.075318375, -0.8290527171442844, -0.25422980230144404, 1.0996757347810981, 0.19655537605285645, -0.3293921649456024, -0.015314653515815735, -0.7135931253433228, 0.25150004029273987, -0.6538596749305725, -0.0737297534942627, 0.041941672563552856, -0.07061237096786499, 0.10982851110981176, -0.4012578561617376, 0.7474222325459885,0.5179669100639873,-0.7919769287109375,0.2933502197265625,-0.7587738037109375
20230215-1533,2023-02-15 15:33:31Z,u02, 1152,100,movements,el-ex, lt, nd,281281.08534137503, -0.8317952302618168, -0.2529280924694364, 1.1009108543002175, 0.15476983785629272, -0.2763015329837799, -0.014723965898156166, -0.7156250476837158, 0.2502399682998657, -0.6521201133728027, -0.06765437126159668, 0.046161949634552, -0.06554651260375977, 0.11130784537712457, -0.4019334645429052, 0.7467519356542622,0.5180940310996056,-0.787322998046875,0.2934417724609375,-0.7244720458984375
20230215-1533,2023-02-15 15:33:31Z,u02, 1153,100,movements,el-ex, lt, nd,281281.09536437504, -0.8339973739051696, -0.2519378329094592, 1.101951051461156, 0.13176465034484863, -0.21398170292377472, 0.0036431383341550827, -0.7172425985336304, 0.24928107857704163, -0.6507088541984558, -0.040386736392974854, 0.05542163550853729, -0.060167670249938965, 0.11248352491974054, -0.402483592241301, 0.7461922197266168,0.5182195675277036,-0.7832794189453125,0.2964019775390625,-0.7176666259765625
20230215-1533,2023-02-15 15:33:31Z,u02, 1154,100,movements,el-ex, lt, nd,281281.10538637504, -0.8356411547161859, -0.2510906675520826, 1.10295830753794, 0.12685750424861908, -0.16818997263908386, 0.0011365709360688925, -0.718467652797699, 0.2484605759382248, -0.6496703624725342, -0.009986937046051025, 0.039716869592666626, -0.04411625862121582, 0.11345083186451999, -0.4028569445849838, 0.7457308801130961,0.5183827115799822,-0.75762939453125,0.3047027587890625,-0.71087646484375
20230215-1533,2023-02-15 15:33:31Z,u02, 1155,100,movements,el-ex, lt, nd,281281.115409375, -0.8369574734863696, -0.2502399291736817, 1.1039436887132918, 0.1273036152124405, -0.1489635556936264, -0.0005949100013822317, -0.7194788455963135, 0.24763642251491547, -0.6488654017448425, -0.017017066478729248, 0.042768821120262146, -0.03492671251296997, 0.11433039154556722, -0.40310775523576775, 0.745341362340849,0.5185546006507974,-0.72845458984375,0.288177490234375,-0.69378662109375
20230215-1533,2023-02-15 15:33:31Z,u02, 1156,100,movements,el-ex, lt, nd,281281.125431375, -0.8382134862440536, -0.24946459237278665, 1.104847760940285, 0.10491256415843964, -0.14798137545585632, 0.003078121691942215, -0.7204357981681824, 0.24688516557216644, -0.6480894088745117, -0.02970147132873535, 0.03705036640167236, -0.004269599914550781, 0.11514785457289106, -0.40335624323369357, 0.7449733074646453,0.518709359127064,-0.7364959716796875,0.2904052734375,-0.6837921142578125
20230215-1533,2023-02-15 15:33:31Z,u02, 1157,100,movements,el-ex, lt, nd,281281.135454375, -0.8395428546412267, -0.24873976852955293, 1.1056898734932075, 0.10804256051778793, -0.16306152939796448, -0.003446329617872834, -0.721429705619812, 0.24618270993232727, -0.6472504734992981, -0.03740501403808594, 0.029879242181777954, 0.034610092639923096, 0.11595174151306543, -0.4036458384695627, 0.7445985499476133,0.5188430877518244,-0.7501373291015625,0.283935546875,-0.6523590087890625
20230215-1533,2023-02-15 15:33:31Z,u02, 1158,100,movements,el-ex, lt, nd,281281.145477375, -0.8411249005779513, -0.24799344214649457, 1.1063949914681774, 0.09418559819459915, -0.19039593636989594, -0.017058543860912323, -0.7225895524024963, 0.24545928835868835, -0.6462306380271912, -0.04381358623504639, 0.029046297073364258, 0.04105180501937866, 0.1168021348822409, -0.4040321064974985, 0.7442114811803784,0.5189071073070103,-0.7588348388671875,0.27606201171875,-0.612640380859375
20230215-1533,2023-02-15 15:33:31Z,u02, 1159,100,movements,el-ex, lt, nd,281281.155499375, -0.8430629872703198, -0.24745382364418897, 1.1068088419462372, 0.03207189217209816, -0.2078481763601303, -0.012202484533190727, -0.7239394783973694, 0.24493613839149475, -0.6449170112609863, -0.03922879695892334, 0.015485584735870361, 0.03801393508911133, 0.11760366548090084, -0.404612000969204, 0.743795755198319,0.5188703639721866,-0.7664031982421875,0.274505615234375,-0.6051788330078125
20230215-1533,2023-02-15 15:33:31Z,u02, 1160,100,movements,el-ex, lt, nd,281281.165522375, -0.8452449107442421, -0.24732948373201236, 1.106678604614032, -0.028373606503009796, -0.21653807163238525, -0.02491907775402069, -0.7253676652908325, 0.24481558799743652, -0.6433560848236084, 0.008052051067352295, 0.018047526478767395, 0.0720517635345459, 0.11819280334767973, -0.40540402000944664, 0.7434068628962336,0.5186755006073325,-0.7631683349609375,0.2604217529296875,-0.606903076171875
20230215-1533,2023-02-15 15:33:31Z,u02, 1161,100,movements,el-ex, lt, nd,281281.17554537504, -0.84754333844837, -0.2473419134420953, 1.1060833946257562, -0.05770967900753021, -0.21100428700447083, -0.052298106253147125, -0.7268421649932861, 0.24482762813568115, -0.6416851282119751, 0.028920471668243408, 0.018569543957710266, 0.07569092512130737, 0.11866296072709628, -0.4062961139452613, 0.7430927458403422,0.5183200027925373,-0.717315673828125,0.2628631591796875,-0.5713043212890625
20230215-1533,2023-02-15 15:33:31Z,u02, 1162,100,movements,el-ex, lt, nd,281281.18556737504, -0.8499331004673909, -0.24732391255376562, 1.1051359094817357, -0.045382969081401825, -0.19211235642433167, -0.07597680389881134, -0.7283768653869629, 0.24481017887592316, -0.6399492621421814, 0.024168550968170166, 0.0015124082565307617, 0.06118333339691162, 0.11909644302180959, -0.407236307061602, 0.742854991580502,0.517823373235591,-0.6979217529296875,0.263397216796875,-0.5659942626953125
20230215-1533,2023-02-15 15:33:31Z,u02, 1163,100,movements,el-ex, lt, nd,281281.195590375, -0.8519768538259057, -0.24674654422255324, 1.1043644397405283, 0.0036350777372717857, -0.17450326681137085, -0.09918180108070374, -0.7297894954681396, 0.2442503422498703, -0.6385522484779358, 0.023841679096221924, -0.025240972638130188, 0.06537109613418579, 0.11969796360298078, -0.40791698158075235, 0.7427277747472573,0.5173311789815782,-0.7042083740234375,0.2463226318359375,-0.578765869140625
20230215-1533,2023-02-15 15:33:31Z,u02, 1164,100,movements,el-ex, lt, nd,281281.205612375, -0.853788273942107, -0.2458375946255763, 1.1037900103049836, 0.035971444100141525, -0.15512824058532715, -0.10505992919206619, -0.7311120629310608, 0.24336881935596466, -0.6373748779296875, 0.035723328590393066, -0.003622770309448242, 0.0690155029296875, 0.12041082680702736, -0.4084284336342946, 0.7426477300031985,0.5168769373543312,-0.7059478759765625,0.2190093994140625,-0.57318115234375
20230215-1533,2023-02-15 15:33:31Z,u02, 1165,100,movements,el-ex, lt, nd,281281.215635375, -0.8556085072664007, -0.24490085859235328, 1.1034460325695175, 0.07404302060604095, -0.1438465565443039, -0.09949202835559845, -0.7324427962303162, 0.24246014654636383, -0.636192262172699, 0.05303001403808594, -0.025937974452972412, 0.07329553365707397, 0.12118351306876733, -0.4089235084354429, 0.7425100049410783,0.5165025681793237,-0.6953887939453125,0.23974609375,-0.568359375
20230215-1533,2023-02-15 15:33:31Z,u02, 1166,100,movements,el-ex, lt, nd,281281.225658375, -0.857332257874402, -0.2438637375578311, 1.1034064783160233, 0.10252073407173157, -0.12318175286054611, -0.08477646857500076, -0.7337281107902527, 0.2414538413286209, -0.6350929737091064, 0.07201546430587769, -0.013716444373130798, 0.08382344245910645, 0.12203294505619278, -0.40934271583643894, 0.7423286783298833,0.5162311812576338,-0.679412841796875,0.216522216796875,-0.562896728515625
20230215-1533,2023-02-15 15:33:31Z,u02, 1167,100,movements,el-ex, lt, nd,281281.235680375, -0.8587791809567952, -0.24269640331015335, 1.103698342754611, 0.12462735176086426, -0.11025317013263702, -0.06432566046714783, -0.7348591089248657, 0.24032087624073029, -0.6342144012451172, 0.0974385142326355, -0.012461408972740173, 0.10301017761230469, 0.12293025032171298, -0.4096107435643645, 0.7421382014322044,0.5160794174208523,-0.661712646484375,0.2277374267578125,-0.55126953125
20230215-1533,2023-02-15 15:33:31Z,u02, 1168,100,movements,el-ex, lt, nd,281281.245703375, -0.8600161122494651, -0.2418529099973413, 1.1041725365338426, 0.11236909031867981, -0.08856811374425888, -0.04374927654862404, -0.735796332359314, 0.23950201272964478, -0.633436918258667, 0.11284112930297852, -0.015304699540138245, 0.12354928255081177, 0.12368179418567735, -0.4098589333562607, 0.7418932781864918,0.5160548767465611,-0.637420654296875,0.2278594970703125,-0.5312042236328125
20230215-1533,2023-02-15 15:33:31Z,u02, 1169,100,movements,el-ex, lt, nd,281281.25572637504, -0.8609058036287829, -0.24129246185950073, 1.1046856408440795, 0.09445298463106155, -0.06668252497911453, -0.029571088030934334, -0.736461341381073, 0.23895785212516785, -0.6328694820404053, 0.13170987367630005, -0.019902706146240234, 0.13448691368103027, 0.12423916654567113, -0.41003646335277744, 0.7416655606662688,0.5161073524919719,-0.622955322265625,0.2241973876953125,-0.5098876953125
20230215-1533,2023-02-15 15:33:31Z,u02, 1170,100,movements,el-ex, lt, nd,281281.26574837504, -0.8615537241366089, -0.24061609487340838, 1.1051537309759727, 0.07827720791101456, -0.062007609754800797, -0.024458885192871094, -0.7369937300682068, 0.23830102384090424, -0.632497251033783, 0.15552711486816406, -0.019154340028762817, 0.13228362798690796, 0.12477094712780804, -0.4101019101295795, 0.7415169002915736,0.5161406702674752,-0.6047515869140625,0.21905517578125,-0.498382568359375
20230215-1533,2023-02-15 15:33:31Z,u02, 1171,100,movements,el-ex, lt, nd,281281.275771375, -0.8622037711342854, -0.23995659693106108, 1.1054168122357768, 0.05215650051832199, -0.06478475779294968, -0.03730671852827072, -0.7375239133834839, 0.2376604676246643, -0.6321201920509338, 0.16525834798812866, -0.028874486684799194, 0.15270429849624634, 0.12525445792180656, -0.4101843658888326, 0.7414181287334497,0.5161000198685424,-0.5814666748046875,0.219146728515625,-0.500213623046875
20230215-1533,2023-02-15 15:33:31Z,u02, 1172,100,movements,el-ex, lt, nd,281281.285793375, -0.8629393861788326, -0.23923138865178759, 1.1055980540182955, 0.07953459769487381, -0.07864703983068466, -0.057664189487695694, -0.7381194233894348, 0.23695597052574158, -0.6316893696784973, 0.1603759527206421, -0.05357590317726135, 0.16760855913162231, 0.12576931343822742, -0.4102893943581269, 0.741332920502007,0.516013630380377,-0.572265625,0.2087860107421875,-0.4794158935546875
20230215-1533,2023-02-15 15:33:31Z,u02, 1173,100,movements,el-ex, lt, nd,281281.295816375, -0.8636999198898975, -0.238141356738436, 1.1058936581306333, 0.10017421096563339, -0.08698033541440964, -0.06866421550512314, -0.7387955784797668, 0.23589684069156647, -0.6312952637672424, 0.15983140468597412, -0.04737454652786255, 0.15288645029067993, 0.12645867713076006, -0.4103176398601707, 0.7412697466271306,0.5159135119830588,-0.5777435302734375,0.183380126953125,-0.464080810546875
20230215-1533,2023-02-15 15:33:31Z,u02, 1174,100,movements,el-ex, lt, nd,281281.305839375, -0.8644856591422753, -0.23688760410770968, 1.1062987804346516, 0.1234062910079956, -0.09308004379272461, -0.07285656780004501, -0.7395158410072327, 0.23467829823493958, -0.6309060454368591, 0.17710745334625244, -0.07200437784194946, 0.16626060009002686, 0.12724179232386243, -0.4103126922402593, 0.741198364583571,0.5158274608999878,-0.5789642333984375,0.1885223388671875,-0.4784088134765625
20230215-1533,2023-02-15 15:33:31Z,u02, 1175,100,movements,el-ex, lt, nd,281281.315861375, -0.8652737247403675, -0.23544661224694674, 1.1069239059301121, 0.1506885439157486, -0.09889718890190125, -0.0665871649980545, -0.7402694225311279, 0.2332773059606552, -0.6305416822433472, 0.1818435788154602, -0.0682229995727539, 0.16807830333709717, 0.1281446679781354, -0.41025370987330523, 0.7410985859260695,0.5157941943867458,-0.562408447265625,0.1626739501953125,-0.4646453857421875
20230215-1533,2023-02-15 15:33:31Z,u02, 1176,100,movements,el-ex, lt, nd,281281.325884375, -0.86611786000451, -0.23409244468247134, 1.1076572085839371, 0.13342167437076569, -0.11088939756155014, -0.04693436250090599, -0.7410414218902588, 0.23196028172969818, -0.6301206350326538, 0.2018873691558838, -0.06695176661014557, 0.1724790334701538, 0.12904948823899184, -0.4102266623689408, 0.7409458830630226,0.5158095414626338,-0.5584259033203125,0.1650543212890625,-0.46246337890625
20230215-1533,2023-02-15 15:33:31Z,u02, 1177,100,movements,el-ex, lt, nd,281281.33590737503, -0.8671218526338771, -0.2330250200078214, 1.1083747502167332, 0.10913711786270142, -0.1289168745279312, -0.02322344295680523, -0.7418619990348816, 0.23092183470726013, -0.6295361518859863, 0.21814996004104614, -0.06539453566074371, 0.1988874077796936, 0.12987851940164316, -0.41032122310838887, 0.7407198562823423,0.5158507638617081,-0.539154052734375,0.165008544921875,-0.4576416015625
20230215-1533,2023-02-15 15:33:31Z,u02, 1178,100,movements,el-ex, lt, nd,281281.34592937503, -0.8683764587377992, -0.23228803803677217, 1.1089586203967146, 0.07368165999650955, -0.1510077863931656, -0.014233676716685295, -0.7427809834480286, 0.2302047163248062, -0.6287146806716919, 0.23139792680740356, -0.0485488623380661, 0.2085944414138794, 0.13061377050055425, -0.4105882470650669, 0.7404257638255228,0.5158748639300584,-0.523712158203125,0.16552734375,-0.4306488037109375
20230215-1533,2023-02-15 15:33:31Z,u02, 1179,100,movements,el-ex, lt, nd,281281.35595237504, -0.869849763477441, -0.23181073392164947, 1.1093405373451222, 0.045514997094869614, -0.16495449841022491, -0.015792159363627434, -0.743790328502655, 0.2297402024269104, -0.6276904344558716, 0.2441108226776123, -0.04689416289329529, 0.20671570301055908, 0.1312611287604008, -0.4110052201287406, 0.7400985403597604,0.5158481187543623,-0.511383056640625,0.1816558837890625,-0.4201202392578125
20230215-1533,2023-02-15 15:33:31Z,u02, 1180,100,movements,el-ex, lt, nd,281281.365974375, -0.8715254591472344, -0.23138614393246731, 1.10947605615273, 0.03647516295313835, -0.18480676412582397, -0.0319354422390461, -0.7449157238006592, 0.22932694852352142, -0.6265059113502502, 0.2544219493865967, -0.049563199281692505, 0.20574486255645752, 0.1318891235434055, -0.4115243492259871, 0.7397847757846346,0.5157241339760406,-0.4996795654296875,0.1828460693359375,-0.4209747314453125
20230215-1533,2023-02-15 15:33:31Z,u02, 1181,100,movements,el-ex, lt, nd,281281.375997375, -0.8734920308714563, -0.23064613303400833, 1.1095437936963888, 0.06467804312705994, -0.22080790996551514, -0.07280005514621735, -0.7462761998176575, 0.22860659658908844, -0.625148594379425, 0.24111878871917725, -0.06736701726913452, 0.20190030336380005, 0.1327027188438164, -0.4120869898664683, 0.7394770461277471,0.5155074455876042,-0.4904937744140625,0.1797637939453125,-0.4207611083984375
20230215-1533,2023-02-15 15:33:31Z,u02, 1182,100,movements,el-ex, lt, nd,281281.386020375, -0.875865651379882, -0.2295141713903751, 1.1096128784621953, 0.0865027979016304, -0.26604384183883667, -0.0928574874997139, -0.7479562759399414, 0.22750446200370789, -0.6235407590866089, 0.23556619882583618, -0.08463647961616516, 0.19952958822250366, 0.13377599858205114, -0.4127148990509433, 0.7391453305226399,0.515203439483209,-0.505157470703125,0.1612396240234375,-0.423248291015625
20230215-1533,2023-02-15 15:33:31Z,u02, 1183,100,movements,el-ex, lt, nd,281281.396042375, -0.8785747541394822, -0.2281513269335829, 1.1097079457419092, 0.09787298738956451, -0.3015746474266052, -0.10632143914699554, -0.7498807311058044, 0.2261771410703659, -0.6217095255851746, 0.2551146149635315, -0.11075972020626068, 0.21907585859298706, 0.13503162680100234, -0.41341468604416237, 0.7387726111259469,0.5148492464786376,-0.51239013671875,0.1428680419921875,-0.42401123046875
20230215-1533,2023-02-15 15:33:31Z,u02, 1184,100,movements,el-ex, lt, nd,281281.406065375, -0.8815873122339759, -0.2266284853766552, 1.109868818319389, 0.11281278729438782, -0.34276631474494934, -0.1106719821691513, -0.7520152926445007, 0.22469350695610046, -0.6196659803390503, 0.25799667835235596, -0.08599111437797546, 0.23473244905471802, 0.13644123501860206, -0.41418691362300675, 0.7383442112986571,0.5144714640217338,-0.4947662353515625,0.11541748046875,-0.4026336669921875
20230215-1533,2023-02-15 15:33:31Z,u02, 1185,100,movements,el-ex, lt, nd,281281.416087375, -0.8851011535554244, -0.22503635830008525, 1.1100827772973192, 0.11750847846269608, -0.37909820675849915, -0.10501351207494736, -0.7544638514518738, 0.22314180433750153, -0.6172453761100769, 0.25815659761428833, -0.07355993986129761, 0.2211424708366394, 0.138017150158746, -0.41512477635313044, 0.737807537722155,0.514064704875603,-0.4940185546875,0.138702392578125,-0.3849334716796875
20230215-1533,2023-02-15 15:33:31Z,u02, 1186,100,movements,el-ex, lt, nd,281281.42611037503, -0.8890022711981527, -0.2236134296402016, 1.1103038019607447, 0.08949495106935501, -0.4163007140159607, -0.08631759136915207, -0.7571119070053101, 0.2217545211315155, -0.6144969463348389, 0.27218759059906006, -0.06680154800415039, 0.22568774223327637, 0.1396260613324435, -0.4162404144005088, 0.7371611469363805,0.5136554833622069,-0.496307373046875,0.1495819091796875,-0.3961029052734375
20230215-1533,2023-02-15 15:33:31Z,u02, 1187,100,movements,el-ex, lt, nd,281281.43613337504, -0.893379952753179, -0.2225992402422013, 1.1104406934722397, 0.05357174575328827, -0.46715882420539856, -0.05218755453824997, -0.7599695324897766, 0.22076547145843506, -0.6113173365592957, 0.2750147581100464, -0.059770017862319946, 0.24324476718902588, 0.14117772443674326, -0.4176244559022632, 0.7363711441831341,0.5132408721008372,-0.48492431640625,0.1549530029296875,-0.3888092041015625
20230215-1533,2023-02-15 15:33:31Z,u02, 1188,100,movements,el-ex, lt, nd,281281.44615537504, -0.898350155919485, -0.22217061035318372, 1.1103606203044065, -0.012457072734832764, -0.5217573642730713, -0.024235285818576813, -0.7630724906921387, 0.22034740447998047, -0.607591450214386, 0.27796506881713867, -0.05149365961551666, 0.265672504901886, 0.14260444867101993, -0.41936647181378767, 0.735418487566519,0.5127917051744976,-0.484954833984375,0.1609954833984375,-0.368072509765625
20230215-1533,2023-02-15 15:33:31Z,u02, 1189,100,movements,el-ex, lt, nd,281281.456178375, -0.9038151120273772, -0.22225028948517078, 1.1099459960002998, -0.056441858410835266, -0.556293249130249, -0.018298432230949402, -0.7663677334785461, 0.22042511403560638, -0.6034013628959656, 0.2727764844894409, -0.046978503465652466, 0.2688371539115906, 0.14388646161280266, -0.42142139380998134, 0.7343635439196579,0.5122604957253425,-0.485107421875,0.168853759765625,-0.3419189453125
20230215-1533,2023-02-15 15:33:31Z,u02, 1190,100,movements,el-ex, lt, nd,281281.466201375, -0.9095313180314554, -0.22258876043088144, 1.1092736719212524, -0.09072233736515045, -0.555168628692627, -0.013268252834677696, -0.769745409488678, 0.22075524926185608, -0.5989649891853333, 0.26164311170578003, -0.06143827736377716, 0.24129897356033325, 0.14507480951155172, -0.4236399564730957, 0.733274807222492,0.5116545937642851,-0.49359130859375,0.1734466552734375,-0.334564208984375
20230215-1533,2023-02-15 15:33:31Z,u02, 1191,100,movements,el-ex, lt, nd,281281.476223375, -0.915250652516421, -0.2230506896062984, 1.1082486395800812, -0.11670398712158203, -0.5377965569496155, -0.03789551556110382, -0.7730775475502014, 0.22120575606822968, -0.5944905281066895, 0.2609010934829712, -0.08686740696430206, 0.23838090896606445, 0.14613809535399058, -0.42590889663504333, 0.7322492895540793,0.5109364932356196,-0.5081024169921875,0.1593170166015625,-0.357666015625
20230215-1533,2023-02-15 15:33:31Z,u02, 1192,100,movements,el-ex, lt, nd,281281.486246375, -0.9207590142509847, -0.2233438718461783, 1.1070109525535452, -0.10044591873884201, -0.5056652426719666, -0.06408477574586868, -0.7762888073921204, 0.22149167954921722, -0.5901838541030884, 0.2081736922264099, -0.0903576910495758, 0.23622578382492065, 0.14716508703022782, -0.42807769260175327, 0.731342751633133,0.5101269230742046,-0.512176513671875,0.13433837890625,-0.356109619140625
20230215-1533,2023-02-15 15:33:31Z,u02, 1193,100,movements,el-ex, lt, nd,281281.496268375, -0.9257457767971696, -0.22308999371576865, 1.1060356988778148, -0.015246657654643059, -0.4428550899028778, -0.0880138948559761, -0.7792671918869019, 0.22124409675598145, -0.5863391757011414, 0.18631070852279663, -0.10420924425125122, 0.20691418647766113, 0.14832624826020266, -0.42991828031324525, 0.7305620848391015,0.5093609411599231,-0.568115234375,0.131134033203125,-0.3539581298828125
20230215-1533,2023-02-15 15:33:31Z,u02, 1194,100,movements,el-ex, lt, nd,281281.50629137503, -0.9298056459800232, -0.22222578843344132, 1.1057171907978247, 0.06277544051408768, -0.3510865569114685, -0.08670894056558609, -0.7817941904067993, 0.22040122747421265, -0.5832847952842712, 0.1976115107536316, -0.09947535395622253, 0.14595258235931396, 0.1496291478365769, -0.4312409083053171, 0.729906648957179,0.5088012677937404,-0.59295654296875,0.117034912109375,-0.379425048828125
20230215-1533,2023-02-15 15:33:31Z,u02, 1195,100,movements,el-ex, lt, nd,281281.51631437504, -0.9327434505073304, -0.22102129916078145, 1.106008961740961, 0.12070240080356598, -0.2506944239139557, -0.06802758574485779, -0.7837170362472534, 0.2192261964082718, -0.5811432003974915, 0.2186536192893982, -0.07220780849456787, 0.11684870719909668, 0.15091015235942595, -0.43203534526324916, 0.729390031097853,0.5084895467503152,-0.5841827392578125,0.1209259033203125,-0.4373321533203125
20230215-1533,2023-02-15 15:33:31Z,u02, 1196,100,movements,el-ex, lt, nd,281281.52633637504, -0.9346143296535928, -0.21973216456723324, 1.1067635720234368, 0.14392811059951782, -0.16606371104717255, -0.0544436015188694, -0.7850295305252075, 0.21796824038028717, -0.5798433423042297, 0.22620707750320435, -0.05152541399002075, 0.11402302980422974, 0.15205240956780372, -0.4323868683572042, 0.7289991658703434,0.5084109012125144,-0.5650634765625,0.1470184326171875,-0.46429443359375
20230215-1533,2023-02-15 15:33:31Z,u02, 1197,100,movements,el-ex, lt, nd,281281.536359375, -0.9357082871951639, -0.21844010155742158, 1.1077206062110356, 0.16580934822559357, -0.09546756744384766, -0.043193716555833817, -0.7858895659446716, 0.2167070508003235, -0.5791508555412292, 0.2130441665649414, -0.03915582597255707, 0.12768900394439697, 0.15304170736530964, -0.43243821799584964, 0.7287253742984677,0.508463162996931,-0.5588226318359375,0.16644287109375,-0.4658203125
20230215-1533,2023-02-15 15:33:31Z,u02, 1198,100,movements,el-ex, lt, nd,281281.546382375, -0.9361245550044666, -0.2171433484501868, 1.1088837952217623, 0.16465699672698975, -0.03987061604857445, -0.027647778391838074, -0.7863562107086182, 0.21544094383716583, -0.5789898037910461, 0.20531678199768066, -0.054979562759399414, 0.13184618949890137, 0.15390487221344773, -0.4322249341080958, 0.7285461051725833,0.5086408640779359,-0.572845458984375,0.17755126953125,-0.4514617919921875
20230215-1533,2023-02-15 15:33:31Z,u02, 1199,100,movements,el-ex, lt, nd,281281.556404375, -0.9359510159091118, -0.21610926997959487, 1.1099587152113177, 0.12766236066818237, 0.024181069806218147, -0.015727337449789047, -0.7864346504211426, 0.214431032538414, -0.5792580246925354, 0.20112282037734985, -0.05767753720283508, 0.1663551926612854, 0.15449618455857578, -0.43185866973185066, 0.7284746135198238,0.5088749571123021,-0.5810394287109375,0.16046142578125,-0.4471435546875
20230215-1533,2023-02-15 15:33:31Z,u02, 1200,100,movements,el-ex, lt, nd,281281.566427375, -0.9352261775296365, -0.21526475140276952, 1.1109217347041673, 0.1275840699672699, 0.07947228848934174, -0.004898391664028168, -0.7861599326133728, 0.2136060744524002, -0.5799351930618286, 0.17423677444458008, -0.06130814552307129, 0.1896916627883911, 0.15484879018054118, -0.43134007927473467, 0.7285200670661607,0.5091423215817278,-0.5853118896484375,0.1567535400390625,-0.41290283203125
20230215-1533,2023-02-15 15:33:31Z,u02, 1201,100,movements,el-ex, lt, nd,281281.576449375, -0.9339372996127853, -0.21451049322390517, 1.1119899691563566, 0.13504686951637268, 0.1308065801858902, 0.005387455224990845, -0.7855411171913147, 0.21286916732788086, -0.5810436010360718, 0.15677231550216675, -0.06276850402355194, 0.17314571142196655, 0.15504475754566907, -0.43062666612169553, 0.7286455245313987,0.5095068862333476,-0.6119232177734375,0.1522979736328125,-0.3902435302734375
20230215-1533,2023-02-15 15:33:31Z,u02, 1202,100,movements,el-ex, lt, nd,281281.586472375, -0.9320467185899967, -0.21369336894704855, 1.1133670771084674, 0.18144099414348602, 0.1904211789369583, 0.022708123549818993, -0.784580647945404, 0.21207070350646973, -0.5826312303543091, 0.14325380325317383, -0.05669049918651581, 0.14818304777145386, 0.1551775005214944, -0.42965606235744835, 0.7288308201305205,0.5100207202757124,-0.6287689208984375,0.1501007080078125,-0.40789794921875
20230215-1533,2023-02-15 15:33:31Z,u02, 1203,100,movements,el-ex, lt, nd,281281.59649537504, -0.9295892831777708, -0.21276885263562934, 1.1152098475141425, 0.2104361653327942, 0.21685278415679932, 0.04120643809437752, -0.7833032608032227, 0.2111671268939972, -0.5846745371818542, 0.1316462755203247, -0.04963764548301697, 0.12375229597091675, 0.1553060362298717, -0.4284189300887662, 0.729034005675689,0.510731264938112,-0.641326904296875,0.1553802490234375,-0.4344482421875
20230215-1533,2023-02-15 15:33:31Z,u02, 1204,100,movements,el-ex, lt, nd,281281.60651737504, -0.9270195734292435, -0.21194288784943366, 1.1171581399823753, 0.18035949766635895, 0.20913760364055634, 0.05349452793598175, -0.7819374799728394, 0.21035970747470856, -0.5867899656295776, 0.10676664113998413, -0.04222315549850464, 0.12298381328582764, 0.15538788524141536, -0.4271529283851907, 0.7292164019470019,0.5115059147534131,-0.6516571044921875,0.161529541015625,-0.4609222412109375
20230215-1533,2023-02-15 15:33:31Z,u02, 1205,100,movements,el-ex, lt, nd,281281.616540375, -0.9247334643815837, -0.2115257238440107, 1.1187045368965522, 0.10823609679937363, 0.18006600439548492, 0.06118965148925781, -0.7806640267372131, 0.20995186269283295, -0.5886288285255432, 0.07111513614654541, -0.02113965153694153, 0.15474510192871094, 0.15529523445694784, -0.42610911891402053, 0.7293741978938283,0.5121792945595919,-0.6751708984375,0.1681365966796875,-0.46380615234375
20230215-1533,2023-02-15 15:33:31Z,u02, 1206,100,movements,el-ex, lt, nd,281281.626562375, -0.9229166765741558, -0.21156832446000223, 1.119674188633586, 0.038423988968133926, 0.13850125670433044, 0.0597776435315609, -0.7795861959457397, 0.20999351143836975, -0.5900407433509827, 0.035369277000427246, -0.007417857646942139, 0.17828232049942017, 0.1550195471350975, -0.4253804894728573, 0.7295058177177881,0.5126808192188226,-0.7095489501953125,0.188812255859375,-0.4338836669921875
20230215-1533,2023-02-15 15:33:31Z,u02, 1207,100,movements,el-ex, lt, nd,281281.636585375, -0.9216178113314152, -0.211870826933445, 1.1202494956387654, 0.021327655762434006, 0.09400781989097595, 0.053206801414489746, -0.7787684798240662, 0.21028925478458405, -0.5910143852233887, -0.0033206939697265625, -0.01696045696735382, 0.15397220849990845, 0.15469091233942797, -0.42492768316049534, 0.7295866069265675,0.5130403519735529,-0.7442169189453125,0.20257568359375,-0.4117584228515625
20230215-1533,2023-02-15 15:33:31Z,u02, 1208,100,movements,el-ex, lt, nd,281281.646608375, -0.9207496094683901, -0.21213111479537236, 1.1207518754030377, 0.021258413791656494, 0.05878831446170807, 0.0491795688867569, -0.7782115340232849, 0.21054372191429138, -0.5916571617126465, -0.04097181558609009, -0.02614128589630127, 0.10320806503295898, 0.15447333237878955, -0.42462854325316585, 0.7296012408874877,0.5133328858213047,-0.7820892333984375,0.193328857421875,-0.437042236328125
20230215-1533,2023-02-15 15:33:31Z,u02, 1209,100,movements,el-ex, lt, nd,281281.656630375, -0.9201175865381532, -0.21238902701689422, 1.1212333395199308, 0.025960510596632957, 0.049495480954647064, 0.04988544434309006, -0.7777941226959229, 0.21079584956169128, -0.5921159982681274, -0.0672222375869751, -0.028621196746826172, 0.054243624210357666, 0.15431275668804215, -0.424416761265028, 0.7295710628685114,0.5135990477118048,-0.819183349609375,0.1844024658203125,-0.4884490966796875
20230215-1533,2023-02-15 15:33:31Z,u02, 1210,100,movements,el-ex, lt, nd,281281.666653375, -0.9193831485757494, -0.21263201475692986, 1.12178078032306, 0.031483106315135956, 0.07350281625986099, 0.053060196340084076, -0.7773182988166809, 0.21103337407112122, -0.5926559567451477, -0.07071936130523682, -0.0020337551832199097, 0.012501537799835205, 0.1541455180206284, -0.42415936910889485, 0.7295479439405659,0.5138946465058714,-0.8450164794921875,0.1821746826171875,-0.537872314453125
20230215-1533,2023-02-15 15:33:31Z,u02, 1211,100,movements,el-ex, lt, nd,281281.67667637503, -0.9183736861288471, -0.2127541300444945, 1.1224509971894956, 0.06437303125858307, 0.1021680161356926, 0.04998307302594185, -0.7766991853713989, 0.21115273237228394, -0.5934246778488159, -0.07742679119110107, 0.028913766145706177, -0.03452026844024658, 0.15398051501546697, -0.4237660288453289, 0.7295704462545254,0.5142365911866856,-0.8480377197265625,0.2089996337890625,-0.5801544189453125
20230215-1533,2023-02-15 15:33:31Z,u02, 1212,100,movements,el-ex, lt, nd,281281.68669837504, -0.9169609886585781, -0.21261480044685568, 1.1233492170863228, 0.09532695263624191, 0.14092792570590973, 0.03408932685852051, -0.7758833765983582, 0.21101653575897217, -0.594539225101471, -0.0983383059501648, 0.03132349252700806, -0.06123775243759155, 0.15386164037106803, -0.4231512458148212, 0.7296604384807824,0.514650551346558,-0.8541259765625,0.2400665283203125,-0.6279449462890625
20230215-1533,2023-02-15 15:33:31Z,u02, 1213,100,movements,el-ex, lt, nd,281281.696721375, -0.9152041433948515, -0.21212439261582341, 1.1244699663735178, 0.13849343359470367, 0.1568184792995453, 0.021438218653202057, -0.7749196887016296, 0.2105371505022049, -0.5959644913673401, -0.10812169313430786, 0.024158239364624023, -0.06704521179199219, 0.15383739951401032, -0.4223172025262904, 0.7298205143347111,0.5151158027830759,-0.8742218017578125,0.242340087890625,-0.6557769775390625
20230215-1533,2023-02-15 15:33:31Z,u02, 1214,100,movements,el-ex, lt, nd,281281.706743375, -0.9134088169232195, -0.21146928145318653, 1.1257492245444707, 0.13859675824642181, 0.1451442390680313, 0.024975962936878204, -0.7739574313163757, 0.20989668369293213, -0.5974388718605042, -0.11880373954772949, 0.023211807012557983, -0.06641006469726562, 0.15390001467675432, -0.4214206301218792, 0.729972471304761,0.5156157459253545,-0.8830413818359375,0.2346954345703125,-0.6630096435546875
20230215-1533,2023-02-15 15:33:31Z,u02, 1215,100,movements,el-ex, lt, nd,281281.716766375, -0.9119065123121747, -0.2108099310062215, 1.1269615199074414, 0.12511372566223145, 0.09920737892389297, 0.017089998349547386, -0.7731683254241943, 0.20925197005271912, -0.5986855030059814, -0.11904352903366089, 0.015662550926208496, -0.035088300704956055, 0.1540247652351786, -0.420634773965867, 0.7300795291651182,0.5160683947035241,-0.89276123046875,0.2331085205078125,-0.663848876953125
20230215-1533,2023-02-15 15:33:32Z,u02, 1216,100,movements,el-ex, lt, nd,281281.726789375, -0.9113301801685942, -0.21021441442773922, 1.1278734488197009, 0.08850990980863571, 0.047088783234357834, 0.014218045398592949, -0.7729214429855347, 0.20866960287094116, -0.5992072224617004, -0.13381671905517578, 0.033685699105262756, -0.01537102460861206, 0.15429982562537783, -0.42022367778181463, 0.7300586533493142,0.5163505387160491,-0.8922119140625,0.22491455078125,-0.6337738037109375
20230215-1533,2023-02-15 15:33:32Z,u02, 1217,100,movements,el-ex, lt, nd,281281.736811375, -0.9113108953912856, -0.20985744412883056, 1.1283555215356207, 0.030528705567121506, 0.0018864159937947989, 0.01084861345589161, -0.7729687690734863, 0.2083204686641693, -0.5992677807807922, -0.1193193793296814, 0.023872479796409607, 0.012536764144897461, 0.15453518880397096, -0.42010115404676657, 0.7299943019848277,0.5164709547514154,-0.90673828125,0.2423553466796875,-0.6145782470703125
20230215-1533,2023-02-15 15:33:32Z,u02, 1218,100,movements,el-ex, lt, nd,281281.746834375, -0.9116412268340203, -0.20969321805854588, 1.1285837026550467, 0.02664927765727043, -0.03343029320240021, 0.0018591132247820497, -0.7731936573982239, 0.20815984904766083, -0.5990333557128906, -0.10739099979400635, 0.01979115605354309, 0.034885406494140625, 0.1547324476309516, -0.42016806613110735, 0.72989161110798,0.5165024591219228,-0.8922882080078125,0.2321929931640625,-0.58673095703125
20230215-1533,2023-02-15 15:33:32Z,u02, 1219,100,movements,el-ex, lt, nd,281281.756856375, -0.9121685209743574, -0.20961374629634336, 1.1287203800246484, 0.014815161004662514, -0.05675159767270088, -0.0031851534731686115, -0.7735224962234497, 0.20808210968971252, -0.5986356735229492, -0.09113198518753052, 0.018297240138053894, 0.02946758270263672, 0.1549283103560305, -0.4203324742523003, 0.7297579407840225,0.5164988102378064,-0.880584716796875,0.2279510498046875,-0.56414794921875
20230215-1533,2023-02-15 15:33:32Z,u02, 1220,100,movements,el-ex, lt, nd,281281.76687937503, -0.9129164414924225, -0.20949119744343886, 1.1288005250549715, 0.02164563536643982, -0.07872799783945084, -0.00935409963130951, -0.7739902138710022, 0.2079622447490692, -0.5980725288391113, -0.07358968257904053, 0.004363760352134705, 0.023289203643798828, 0.15518602309000026, -0.4205722542083941, 0.729599261109129,0.516450454671834,-0.864654541015625,0.22637939453125,-0.5691680908203125
20230215-1533,2023-02-15 15:33:32Z,u02, 1221,100,movements,el-ex, lt, nd,281281.77690237504, -0.9138748300232663, -0.20921635580775816, 1.1288735866698092, 0.023068353533744812, -0.10058722645044327, -0.020191114395856857, -0.7746081948280334, 0.207693412899971, -0.5973653197288513, -0.04721474647521973, 0.016015633940696716, 0.019988059997558594, 0.15555590404863592, -0.4208558978963269, 0.7294218217863149,0.5163586297412122,-0.8475799560546875,0.2123260498046875,-0.5747833251953125
20230215-1533,2023-02-15 15:33:32Z,u02, 1222,100,movements,el-ex, lt, nd,281281.786924375, -0.9150647079335275, -0.2089430636326548, 1.1288402881492994, 0.00545873399823904, -0.11446788907051086, -0.028182994574308395, -0.7753635048866272, 0.2074260711669922, -0.5964778661727905, -0.027706503868103027, 0.02292059361934662, 0.027172446250915527, 0.15596239954153895, -0.42123247111032747, 0.7292229776197677,0.5162099645287467,-0.8218231201171875,0.2237091064453125,-0.5773773193359375
20230215-1533,2023-02-15 15:33:32Z,u02, 1223,100,movements,el-ex, lt, nd,281281.79694800003, -0.9165134355688154, -0.20864296870922694, 1.128529410587438, -0.01518736407160759, -0.11601811647415161, -0.042572613805532455, -0.776276171207428, 0.207132488489151, -0.5953918099403381, -0.001021742820739746, 0.011434376239776611, 0.04963064193725586, 0.15638751349841834, -0.4217191513567347, 0.7290450129226863,0.5159352639721211,-0.803070068359375,0.2303466796875,-0.569305419921875
20230215-1533,2023-02-15 15:33:32Z,u02, 1224,100,movements,el-ex, lt, nd,281281.80697100004, -0.9181143589753614, -0.2083737590811297, 1.1279431352622056, -0.0290864035487175, -0.1164599359035492, -0.06815893203020096, -0.777272641658783, 0.20686911046504974, -0.5941821336746216, 0.005177974700927734, 0.010263413190841675, 0.05888855457305908, 0.15678138877524564, -0.4222896253897575, 0.7289007296774765,0.5155528601435746,-0.7772979736328125,0.21856689453125,-0.5457611083984375
20230215-1533,2023-02-15 15:33:32Z,u02, 1225,100,movements,el-ex, lt, nd,281281.81699300004, -0.9197791591241393, -0.20791730354774532, 1.1272091597007319, -0.004960902500897646, -0.09393464773893356, -0.08761529624462128, -0.7783357501029968, 0.20642250776290894, -0.5929444432258606, 0.009826898574829102, -0.014756888151168823, 0.0630982518196106, 0.15723284503493332, -0.42285410985980343, 0.7288098451154087,0.5150809563025432,-0.7720947265625,0.217132568359375,-0.5352935791015625
20230215-1533,2023-02-15 15:33:32Z,u02, 1226,100,movements,el-ex, lt, nd,281281.827016, -0.9214086395517047, -0.20726714799679444, 1.1265181294031548, -0.004451706539839506, -0.08210089802742004, -0.08582539111375809, -0.7794076204299927, 0.2057863175868988, -0.5917564034461975, 0.0063669681549072266, -0.01885095238685608, 0.04616314172744751, 0.15775904270993268, -0.42336023584160853, 0.7287451062309315,0.5145955321012353,-0.7685089111328125,0.1916656494140625,-0.52984619140625
20230215-1533,2023-02-15 15:33:32Z,u02, 1227,100,movements,el-ex, lt, nd,281281.837038, -0.922834246293768, -0.20676348137126924, 1.1258552900089827, -0.009765606373548508, -0.04808753356337547, -0.06908845901489258, -0.7803330421447754, 0.20529340207576752, -0.5907071828842163, 0.023817598819732666, -0.0264909565448761, 0.05292642116546631, 0.1581811306758384, -0.42382205237831183, 0.728693003517267,0.5141596128166971,-0.773040771484375,0.1869354248046875,-0.54559326171875
20230215-1533,2023-02-15 15:33:32Z,u02, 1228,100,movements,el-ex, lt, nd,281281.847061, -0.9237982979427964, -0.2064280558839684, 1.1252537860670235, -0.030168084427714348, -0.016865964978933334, -0.03840884193778038, -0.7809569835662842, 0.20496509969234467, -0.5899960994720459, 0.023464977741241455, -0.006875529885292053, 0.0604550838470459, 0.1584318201759877, -0.42414774584917125, 0.728695892422332,0.5138095664842621,-0.7565155029296875,0.178802490234375,-0.53778076171875
20230215-1533,2023-02-15 15:33:32Z,u02, 1229,100,movements,el-ex, lt, nd,281281.857084, -0.9241001929603062, -0.2065859143044702, 1.1248475156037563, -0.027040598914027214, 0.02751161903142929, 0.0038509713485836983, -0.7811092734336853, 0.20511960983276367, -0.5897408127784729, 0.04310274124145508, 0.023853734135627747, 0.0498238205909729, 0.15836179317229812, -0.4243243289468795, 0.7287114340888338,0.5136633456449925,-0.7574920654296875,0.198089599609375,-0.529541015625
20230215-1533,2023-02-15 15:33:32Z,u02, 1230,100,movements,el-ex, lt, nd,281281.867106, -0.9238813123757438, -0.2071602190130951, 1.124662413496273, -0.04116600751876831, 0.07268176227807999, 0.04091125354170799, -0.7808860540390015, 0.2056816667318344, -0.5898406505584717, 0.054643988609313965, 0.0307837575674057, 0.02611994743347168, 0.158042946679703, -0.42438436320834116, 0.7287151137283534,0.5137067655686144,-0.738006591796875,0.228973388671875,-0.5399169921875
20230215-1533,2023-02-15 15:33:32Z,u02, 1231,100,movements,el-ex, lt, nd,281281.87712900003, -0.9233731389552953, -0.2080183864493513, 1.1244450989602202, -0.06460700184106827, 0.08914808183908463, 0.04896912723779678, -0.7804450988769531, 0.2065214067697525, -0.5901306867599487, 0.0519600510597229, 0.02966935932636261, 0.02167975902557373, 0.15753252658456213, -0.4244032835637452, 0.7287435934344173,0.5138073483569964,-0.7262420654296875,0.2364654541015625,-0.563720703125
20230215-1533,2023-02-15 15:33:32Z,u02, 1232,100,movements,el-ex, lt, nd,281281.88715100003, -0.9229069374661237, -0.20910800752471695, 1.1239345285999665, -0.10196023434400558, 0.10911194235086441, 0.03715401142835617, -0.779990017414093, 0.20758742094039917, -0.590358316898346, 0.03143966197967529, 0.03659895062446594, 0.020320475101470947, 0.1568804219392591, -0.42451073037600556, 0.7288021646834603,0.5138350715420172,-0.728485107421875,0.2361907958984375,-0.568450927734375
20230215-1533,2023-02-15 15:33:32Z,u02, 1233,100,movements,el-ex, lt, nd,281281.89717400004, -0.9224202996416508, -0.2097382697568447, 1.123232842444004, -0.06868778169155121, 0.13582690060138702, 0.00902557373046875, -0.7795981168746948, 0.20820391178131104, -0.5906586647033691, 0.014141082763671875, 0.012483909726142883, 0.008535921573638916, 0.1563611793574862, -0.4245254228791797, 0.7289863468205631,0.5137198136809062,-0.7485504150390625,0.2441864013671875,-0.570037841796875
20230215-1533,2023-02-15 15:33:32Z,u02, 1234,100,movements,el-ex, lt, nd,281281.907197, -0.921708809566153, -0.2096731050123765, 1.1227315952829129, -0.01338750496506691, 0.15887150168418884, -0.016445964574813843, -0.7791885137557983, 0.20814017951488495, -0.5912214517593384, -0.00807332992553711, -0.013880595564842224, -0.03539597988128662, 0.1560974405850493, -0.42429102125097884, 0.7292763733133167,0.5135820747888244,-0.7654571533203125,0.2206878662109375,-0.582122802734375
20230215-1533,2023-02-15 15:33:32Z,u02, 1235,100,movements,el-ex, lt, nd,281281.917219, -0.9209086796567854, -0.20891167094888208, 1.1225196651855183, 0.03189930319786072, 0.1701614409685135, -0.0235625971108675, -0.7788411974906921, 0.20739535987377167, -0.5919404029846191, -0.016217947006225586, -0.02099403738975525, -0.061715543270111084, 0.1561436066054028, -0.4238501677824093, 0.7296201691104492,0.5134437114107429,-0.787261962890625,0.1942596435546875,-0.626617431640625
20230215-1533,2023-02-15 15:33:32Z,u02, 1236,100,movements,el-ex, lt, nd,281281.927242, -0.9199211966398514, -0.20857414663008889, 1.1225417797218926, 0.03947066515684128, 0.1693374663591385, -0.015470048412680626, -0.7783119082450867, 0.2070651650428772, -0.5927516222000122, -0.012352705001831055, 0.00033226609230041504, -0.05741012096405029, 0.15602622234693925, -0.42341469922466407, 0.7298767327450668,0.5134741180596912,-0.7950592041015625,0.1864013671875,-0.653656005859375
20230215-1533,2023-02-15 15:33:32Z,u02, 1237,100,movements,el-ex, lt, nd,281281.937265, -0.9185614474310373, -0.20896381890648408, 1.1226698353352569, 0.01590479351580143, 0.15401417016983032, 0.002424555830657482, -0.7774410247802734, 0.2074463665485382, -0.5937603712081909, -0.016351640224456787, 0.02097766101360321, -0.03685486316680908, 0.15555234539044416, -0.4229932529441028, 0.7300703829577604,0.5136898622964908,-0.7906646728515625,0.2073974609375,-0.6501617431640625
20230215-1533,2023-02-15 15:33:32Z,u02, 1238,100,movements,el-ex, lt, nd,281281.947287, -0.9170603485655769, -0.2097250790769061, 1.1227693296301495, -0.019851339980959892, 0.12080028653144836, 0.01603437401354313, -0.7764232754707336, 0.20819100737571716, -0.5948305130004883, -0.015004277229309082, 0.038253650069236755, -0.017367422580718994, 0.15489104068136872, -0.42260326313079893, 0.7302427367790449,0.5139656547975126,-0.793792724609375,0.228424072265625,-0.630615234375
20230215-1533,2023-02-15 15:33:32Z,u02, 1239,100,movements,el-ex, lt, nd,281281.95731, -0.9159483945166224, -0.21076886159597474, 1.1225638689752093, -0.062749482691288, 0.0825924500823021, 0.01919860765337944, -0.7755885720252991, 0.2092118114233017, -0.5955607891082764, -0.014602959156036377, 0.033860623836517334, -0.013585329055786133, 0.1541549332626889, -0.42244037740252766, 0.7303665549576492,0.5141447727028681,-0.7914276123046875,0.2464447021484375,-0.6121978759765625
20230215-1533,2023-02-15 15:33:32Z,u02, 1240,100,movements,el-ex, lt, nd,281281.96733200003, -0.9154099320334128, -0.21206251582903501, 1.1220434039448495, -0.07852312177419662, 0.05879044532775879, 0.01149568147957325, -0.7750526070594788, 0.21047666668891907, -0.5958129167556763, -0.013018012046813965, 0.02261655032634735, -0.0014008283615112305, 0.1534019667731947, -0.422565243307648, 0.730411127739242,0.5142042243732263,-0.790191650390625,0.243072509765625,-0.6091461181640625
20230215-1533,2023-02-15 15:33:32Z,u02, 1241,100,movements,el-ex, lt, nd,281281.97735500004, -0.9151279324698719, -0.2127223166802846, 1.1215111844882035, -0.04451343044638634, 0.03900608792901039, -0.0074266367591917515, -0.7747743129730225, 0.21112163364887238, -0.5959466695785522, -0.013799846172332764, 0.020125284790992737, -0.002625107765197754, 0.1529595757374825, -0.42264646685899504, 0.7305039403878291,0.5141374809119952,-0.7880706787109375,0.23309326171875,-0.5972137451171875
20230215-1533,2023-02-15 15:33:32Z,u02, 1242,100,movements,el-ex, lt, nd,281281.987378, -0.9144751334839234, -0.21241400432275456, 1.1212240376249447, -0.026492349803447723, 0.04585334286093712, -0.013312224298715591, -0.7744366526603699, 0.2108202576637268, -0.5964919924736023, -0.008217096328735352, 0.0030011236667633057, -0.02550208568572998, 0.152851441260779, -0.4223629272245518, 0.7307640427492802,0.5140329647097625,-0.78857421875,0.2312469482421875,-0.59857177734375
20230215-1533,2023-02-15 15:33:32Z,u02, 1243,100,movements,el-ex, lt, nd,281281.9974, -0.9133642183589432, -0.2117037796341406, 1.121115415919847, -0.012202894315123558, 0.046260006725788116, -0.01352399680763483, -0.773891806602478, 0.21012595295906067, -0.5974432826042175, 0.002193927764892578, -0.005093634128570557, -0.01948481798171997, 0.15282023834084624, -0.4218107821940196, 0.7311377348617405,0.5139641395324043,-0.78265380859375,0.2138214111328125,-0.6219940185546875
20230215-1533,2023-02-15 15:33:32Z,u02, 1244,100,movements,el-ex, lt, nd,281282.007423, -0.9120199925783353, -0.2113862859596986, 1.121140511113483, -0.01793401688337326, 0.05248354747891426, -0.005743838846683502, -0.7731407284736633, 0.20981553196907043, -0.5985238552093506, 0.007988810539245605, 0.010139882564544678, -0.008165597915649414, 0.15260400235853863, -0.4212482625651777, 0.7314643537379293,0.5140250346886147,-0.771697998046875,0.2050323486328125,-0.6169281005859375
20230215-1533,2023-02-15 15:33:32Z,u02, 1245,100,movements,el-ex, lt, nd,281282.017446, -0.9110382269804639, -0.2119075535591565, 1.1210568371712921, -0.029801346361637115, 0.0601784847676754, 0.00813748873770237, -0.772466242313385, 0.21032516658306122, -0.5992155075073242, 0.023671746253967285, 0.006776854395866394, 0.018801748752593994, 0.15213047421523035, -0.42100900011450354, 0.7316110155255178,0.5141526988110832,-0.7651519775390625,0.2199554443359375,-0.606689453125
20230215-1533,2023-02-15 15:33:32Z,u02, 1246,100,movements,el-ex, lt, nd,281282.027468, -0.910489279115668, -0.21334976613168763, 1.120827190913045, -0.04254883527755737, 0.06822788715362549, 0.023947877809405327, -0.7718968391418457, 0.21173490583896637, -0.599452793598175, 0.027512073516845703, 0.011012881994247437, 0.03458762168884277, 0.15137763742887178, -0.42113943826346545, 0.7315598236590954,0.5143409226525555,-0.7487945556640625,0.21710205078125,-0.580413818359375
20230215-1533,2023-02-15 15:33:32Z,u02, 1247,100,movements,el-ex, lt, nd,281282.037491, -0.9099092093874589, -0.2147752643500932, 1.1207077252939635, -0.03470864146947861, 0.07735560834407806, 0.04801097512245178, -0.7713099122047424, 0.21312786638736725, -0.5997145771980286, 0.03737747669219971, -0.00025252997875213623, 0.03027176856994629, 0.15064628186268858, -0.4212462660370784, 0.731489273049583,0.5145685254176506,-0.744384765625,0.222747802734375,-0.5648651123046875
20230215-1533,2023-02-15 15:33:32Z,u02, 1248,100,movements,el-ex, lt, nd,281282.047513, -0.9095425306530278, -0.21604935561037544, 1.1206940561844878, -0.04151807725429535, 0.07422692328691483, 0.07429371774196625, -0.7708749771118164, 0.21437250077724457, -0.5998300909996033, 0.05014139413833618, -0.0006884634494781494, 0.03894752264022827, 0.15005114079536883, -0.42139010776428876, 0.7313699195809021,0.5147941063027957,-0.7339324951171875,0.2128753662109375,-0.5694427490234375
20230215-1533,2023-02-15 15:33:32Z,u02, 1249,100,movements,el-ex, lt, nd,281282.05753600004, -0.9091063077258873, -0.2173394376609905, 1.1208063341594914, -0.055233221501111984, 0.05915769562125206, 0.10005071759223938, -0.7703943848609924, 0.21563242375850677, -0.5999958515167236, 0.05742758512496948, 0.0018663257360458374, 0.06410717964172363, 0.14945823078511664, -0.42150246128484176, 0.7312300928308897,0.5150730655094693,-0.720733642578125,0.21368408203125,-0.560882568359375
20230215-1533,2023-02-15 15:33:32Z,u02, 1250,100,movements,el-ex, lt, nd,281282.067559, -0.9084860426346112, -0.2185677449879582, 1.1209712948034267, -0.09382855147123337, 0.02774491161108017, 0.12241807579994202, -0.7698127031326294, 0.21683166921138763, -0.6003102660179138, 0.059317708015441895, 0.013194546103477478, 0.09213155508041382, 0.1488529362782944, -0.42153014434307895, 0.7311252102395651,0.5153746893382902,-0.7129669189453125,0.217498779296875,-0.535888671875
20230215-1533,2023-02-15 15:33:32Z,u02, 1251,100,movements,el-ex, lt, nd,281282.077581, -0.9083179986013137, -0.22021622362909643, 1.1208222732719462, -0.15443675220012665, -0.014868861995637417, 0.13784781098365784, -0.7694289088249207, 0.21844063699245453, -0.6002189517021179, 0.06868433952331543, 0.015674948692321777, 0.12345802783966064, 0.14813359676405158, -0.42183760910772417, 0.7309392022983783,0.5155940660324871,-0.7104949951171875,0.2300262451171875,-0.5081787109375
20230215-1533,2023-02-15 15:33:32Z,u02, 1252,100,movements,el-ex, lt, nd,281282.087604, -0.9086471667139492, -0.22248542499549875, 1.1202804969461977, -0.20286554098129272, -0.04042375460267067, 0.14650361239910126, -0.7692335247993469, 0.2206544727087021, -0.5996593236923218, 0.0777662992477417, -0.010266333818435669, 0.14392507076263428, 0.14721651795630747, -0.4224898056861879, 0.7306510286889076,0.5157311030503847,-0.70074462890625,0.2341156005859375,-0.4767608642578125
20230215-1533,2023-02-15 15:33:32Z,u02, 1253,100,movements,el-ex, lt, nd,281282.097626, -0.9093808495246223, -0.22493690869788815, 1.1195144704208364, -0.20449954271316528, -0.06588251143693924, 0.1458398550748825, -0.7692440748214722, 0.22304485738277435, -0.598760724067688, 0.08494848012924194, 0.0015339404344558716, 0.15363138914108276, 0.14628455561435155, -0.4233443835331075, 0.730305218946256,0.5157852879095517,-0.69146728515625,0.21038818359375,-0.4557342529296875
20230215-1533,2023-02-15 15:33:32Z,u02, 1254,100,movements,el-ex, lt, nd,281282.107649, -0.9103198624113563, -0.22722108443562006, 1.1188814414921484, -0.16811542212963104, -0.0666886493563652, 0.1303548961877823, -0.7694016098976135, 0.22527091205120087, -0.5977240204811096, 0.11042046546936035, -0.018270254135131836, 0.14357668161392212, 0.14549866380162263, -0.4242265160857948, 0.7299067236482226,0.5158468405918547,-0.684295654296875,0.224578857421875,-0.44512939453125
20230215-1533,2023-02-15 15:33:32Z,u02, 1255,100,movements,el-ex, lt, nd,281282.117672, -0.9110040280521169, -0.22913830160673043, 1.1183649704892513, -0.14946912229061127, -0.049602873623371124, 0.10876055061817169, -0.7694677710533142, 0.2271384298801422, -0.5969316959381104, 0.14361333847045898, -0.0301780104637146, 0.16321581602096558, 0.14481499294081954, -0.42492679601250116, 0.7295895071286794,0.5159117229072495,-0.6589813232421875,0.207000732421875,-0.4541473388671875
20230215-1533,2023-02-15 15:33:32Z,u02, 1256,100,movements,el-ex, lt, nd,281282.127694, -0.9115784365450558, -0.23086515326810478, 1.1177574406497603, -0.15483805537223816, -0.03755925968289375, 0.08828829973936081, -0.7694993615150452, 0.22881980240345, -0.59624844789505, 0.16909658908843994, -0.035140037536621094, 0.17249661684036255, 0.1441578830868247, -0.4255517204498556, 0.729348568323513,0.5159214250079769,-0.6258544921875,0.19696044921875,-0.4337158203125
20230215-1533,2023-02-15 15:33:32Z,u02, 1257,100,movements,el-ex, lt, nd,281282.13771700003, -0.9120289890852464, -0.2324404296964069, 1.1170501475636283, -0.14190703630447388, -0.013159911148250103, 0.07511508464813232, -0.769481897354126, 0.23035301268100739, -0.595680296421051, 0.20946913957595825, -0.04349391162395477, 0.18257910013198853, 0.14350663485139437, -0.4261052538770027, 0.729183163549692,0.5158798755256104,-0.60040283203125,0.1936798095703125,-0.4237518310546875
20230215-1533,2023-02-15 15:33:32Z,u02, 1258,100,movements,el-ex, lt, nd,281282.14774000004, -0.9123692818072808, -0.2339070170655896, 1.1162721822120618, -0.16673383116722107, -0.015179652720689774, 0.06917063891887665, -0.7694165110588074, 0.23177990317344666, -0.5952110290527344, 0.24080634117126465, -0.06225480139255524, 0.21316146850585938, 0.14285410885431898, -0.4265995479795672, 0.729076306177382,0.5158034029370998,-0.5600128173828125,0.186859130859375,-0.4131011962890625
20230215-1533,2023-02-15 15:33:32Z,u02, 1259,100,movements,el-ex, lt, nd,281282.157762, -0.9126678613501611, -0.2356015747207788, 1.1152042351234275, -0.20254062116146088, 0.002364985877647996, 0.07238483428955078, -0.7692824006080627, 0.2334279865026474, -0.5947402715682983, 0.2666579484939575, -0.06492520868778229, 0.27561795711517334, 0.1420391396918622, -0.42714723177857167, 0.7290162452833271,0.515660211769419,-0.5286102294921875,0.169525146484375,-0.382049560546875
20230215-1533,2023-02-15 15:33:32Z,u02, 1260,100,movements,el-ex, lt, nd,281282.167785, -0.9127444220194882, -0.2374162261537083, 1.1139383028959535, -0.20720461010932922, 0.039922747761011124, 0.06422917544841766, -0.7689915299415588, 0.23519212007522583, -0.5944212675094604, 0.3010350465774536, -0.08539661765098572, 0.30448901653289795, 0.14107700879836824, -0.4276524672118508, 0.72903459944575,0.5154794992787213,-0.50262451171875,0.1685028076171875,-0.319122314453125
20230215-1533,2023-02-15 15:33:32Z,u02, 1261,100,movements,el-ex, lt, nd,281282.177807, -0.9124439855387065, -0.2392506645877047, 1.1126670433614108, -0.21697355806827545, 0.08456958085298538, 0.07839636504650116, -0.768470287322998, 0.23697470128536224, -0.5943872928619385, 0.3347850441932678, -0.09628869593143463, 0.2962305545806885, 0.14000816559456697, -0.4280234364592321, 0.7291312569186337,0.5153261758105264,-0.46795654296875,0.1497955322265625,-0.2899322509765625
20230215-1533,2023-02-15 15:33:32Z,u02, 1262,100,movements,el-ex, lt, nd,281282.18783, -0.9116279591236128, -0.24131179586395476, 1.1113467582883063, -0.23889803886413574, 0.13354244828224182, 0.08738719671964645, -0.7675972580909729, 0.2389766126871109, -0.5947138071060181, 0.3802224397659302, -0.12429161369800568, 0.31807196140289307, 0.13870635289283692, -0.4282565224456926, 0.7293141392530406,0.5152258101021632,-0.433685302734375,0.14068603515625,-0.29815673828125
20230215-1533,2023-02-15 15:33:32Z,u02, 1263,100,movements,el-ex, lt, nd,281282.197853, -0.9104066762954526, -0.2436986426166371, 1.1098078182282631, -0.29029327630996704, 0.1810348629951477, 0.10764439404010773, -0.7664177417755127, 0.24129362404346466, -0.595299243927002, 0.40244990587234497, -0.11804841458797455, 0.38082170486450195, 0.13712463260570965, -0.42842409868491166, 0.7295873409509965,0.5151232364193734,-0.3873748779296875,0.11468505859375,-0.276641845703125
20230215-1533,2023-02-15 15:33:32Z,u02, 1264,100,movements,el-ex, lt, nd,281282.207875, -0.9090149467640836, -0.2465805835160625, 1.1078856736875529, -0.35290658473968506, 0.18514013290405273, 0.11715667694807053, -0.7650367617607117, 0.24408940970897675, -0.5959355235099792, 0.41828078031539917, -0.10854563117027283, 0.4170414209365845, 0.1352213375985451, -0.4286577193358791, 0.7299151685013204,0.5149675313818032,-0.3639678955078125,0.1232452392578125,-0.2144775390625
20230215-1533,2023-02-15 15:33:32Z,u02, 1265,100,movements,el-ex, lt, nd,281282.21789800003, -0.9077253455595347, -0.24980531541102322, 1.105717188442127, -0.37779584527015686, 0.17910300195217133, 0.13360553979873657, -0.7636432647705078, 0.24721531569957733, -0.5964339971542358, 0.4048786759376526, -0.1117326021194458, 0.40797269344329834, 0.13315521852077009, -0.42901363720647906, 0.7302283705702778,0.5147654065652716,-0.3467559814453125,0.1355438232421875,-0.17889404296875
20230215-1533,2023-02-15 15:33:32Z,u02, 1266,100,movements,el-ex, lt, nd,281282.22792000003, -0.906542896348587, -0.25348057963969894, 1.103227304373935, -0.4519217312335968, 0.1855127066373825, 0.14335563778877258, -0.7622168660163879, 0.2507748305797577, -0.5967723727226257, 0.3989052176475525, -0.13328221440315247, 0.42544668912887573, 0.13086839150622745, -0.4295198387366031, 0.7305272078587243,0.5145055386767949,-0.3587646484375,0.1354827880859375,-0.1884613037109375
20230215-1533,2023-02-15 15:33:32Z,u02, 1267,100,movements,el-ex, lt, nd,281282.23794300004, -0.9050933401855062, -0.2573951421159935, 1.100573626487256, -0.42474600672721863, 0.23959004878997803, 0.15126460790634155, -0.7605732083320618, 0.2545623779296875, -0.5972657799720764, 0.37988168001174927, -0.1549072563648224, 0.4269776940345764, 0.12838090252747023, -0.4299830846814234, 0.7308856588839898,0.5142363860603613,-0.363311767578125,0.11749267578125,-0.17132568359375
20230215-1533,2023-02-15 15:33:32Z,u02, 1268,100,movements,el-ex, lt, nd,281282.247966, -0.9027922650314144, -0.26118724815629035, 1.0982422947904755, -0.39185091853141785, 0.3412482440471649, 0.16203096508979797, -0.7584335207939148, 0.25822770595550537, -0.5984120965003967, 0.38561558723449707, -0.14979881048202515, 0.36495256423950195, 0.12578995038442298, -0.4300823782541587, 0.7313627283211326,0.5141153185229596,-0.3806915283203125,0.0996551513671875,-0.1702880859375
20230215-1533,2023-02-15 15:33:32Z,u02, 1269,100,movements,el-ex, lt, nd,281282.257988, -0.8992747016442555, -0.2645890501189079, 1.0964796593493047, -0.29782891273498535, 0.44425317645072937, 0.16329394280910492, -0.7556317448616028, 0.2615126371383667, -0.6005261540412903, 0.38665908575057983, -0.16373440623283386, 0.2911694645881653, 0.12316106008246357, -0.42961410769565306, 0.73201758406276,0.5142111918423763,-0.3728179931640625,0.108428955078125,-0.23345947265625
20230215-1533,2023-02-15 15:33:32Z,u02, 1270,100,movements,el-ex, lt, nd,281282.268011, -0.8947749805755261, -0.2676472999567837, 1.095379281390975, -0.26414525508880615, 0.5030762553215027, 0.18162767589092255, -0.7522945404052734, 0.26446324586868286, -0.6034169793128967, 0.3661709427833557, -0.13465672731399536, 0.24593406915664673, 0.12055606389440053, -0.4286697386443872, 0.732767794985756,0.5145481465113916,-0.3689727783203125,0.0977783203125,-0.309356689453125
20230215-1533,2023-02-15 15:33:32Z,u02, 1271,100,movements,el-ex, lt, nd,281282.278034, -0.8898708567518737, -0.2709488657414185, 1.0943539116370207, -0.3005485534667969, 0.5323723554611206, 0.20458950102329254, -0.7486437559127808, 0.26764580607414246, -0.6065460443496704, 0.3643512725830078, -0.14740660786628723, 0.2714020609855652, 0.11776453974964955, -0.42761954647306877, 0.73354337036043,0.5149631302973863,-0.3861236572265625,0.1298065185546875,-0.35748291015625
20230215-1533,2023-02-15 15:33:32Z,u02, 1272,100,movements,el-ex, lt, nd,281282.288056, -0.8846276933027784, -0.27453039587731404, 1.0933044519871513, -0.3118123710155487, 0.5687311887741089, 0.2222159057855606, -0.7447068691253662, 0.27109494805336, -0.6098517179489136, 0.361467182636261, -0.13919803500175476, 0.31715768575668335, 0.11476681699249983, -0.4265005398597187, 0.7343494674487338,0.5154188670116929,-0.3842926025390625,0.1202392578125,-0.33514404296875
20230215-1533,2023-02-15 15:33:32Z,u02, 1273,100,movements,el-ex, lt, nd,281282.29807900003, -0.8790905638814446, -0.27845796103249243, 1.09222368899629, -0.3487955331802368, 0.592199444770813, 0.25270912051200867, -0.7404928803443909, 0.2748733460903168, -0.6132820248603821, 0.3570396304130554, -0.12565770745277405, 0.3470161557197571, 0.11154606550477209, -0.42534276281992184, 0.7351668798347751,0.5159171847724916,-0.38323974609375,0.13189697265625,-0.292694091796875
20230215-1533,2023-02-15 15:33:32Z,u02, 1274,100,movements,el-ex, lt, nd,281282.30810100003, -0.8734754243792285, -0.2829805067488892, 1.0909500598369328, -0.41371408104896545, 0.5975580215454102, 0.28477463126182556, -0.7360771298408508, 0.279218852519989, -0.6166257262229919, 0.3245018720626831, -0.1080763041973114, 0.35670745372772217, 0.10802369447095045, -0.4242853084733638, 0.7359504018996076,0.5164202047794016,-0.383453369140625,0.1492156982421875,-0.266265869140625
20230215-1533,2023-02-15 15:33:32Z,u02, 1275,100,movements,el-ex, lt, nd,281282.31812400004, -0.868094087240702, -0.28805142740662454, 1.0894148081890993, -0.46577492356300354, 0.5567560195922852, 0.3022286295890808, -0.7316583395004272, 0.2840844690799713, -0.6196548342704773, 0.27299439907073975, -0.0999566912651062, 0.3350478410720825, 0.10428354792507014, -0.4234353981407536, 0.7366589818869804,0.5168761304181057,-0.4115753173828125,0.171142578125,-0.259918212890625
20230215-1533,2023-02-15 15:33:32Z,u02, 1276,100,movements,el-ex, lt, nd,281282.328147, -0.8633209556986058, -0.29379967555330583, 1.0874352909287748, -0.5781651139259338, 0.5093629360198975, 0.32486072182655334, -0.7274392247200012, 0.2895911633968353, -0.622068464756012, 0.2076181173324585, -0.0945228636264801, 0.30335813760757446, 0.10033165969564034, -0.42296492227596283, 0.7372396545030976,0.5172156143074652,-0.4586639404296875,0.1841278076171875,-0.28460693359375
20230215-1533,2023-02-15 15:33:32Z,u02, 1277,100,movements,el-ex, lt, nd,281282.338169, -0.859275966673431, -0.30017193514242035, 1.0846851794830137, -0.6286953091621399, 0.4520253539085388, 0.2891918122768402, -0.7235046625137329, 0.29568445682525635, -0.6237881779670715, 0.1671997308731079, -0.09001129865646362, 0.31112027168273926, 0.09615081341199308, -0.42291954451029107, 0.7377597869126128,0.5173050892493977,-0.5198211669921875,0.195068359375,-0.3187103271484375
20230215-1533,2023-02-15 15:33:32Z,u02, 1278,100,movements,el-ex, lt, nd,281282.348192, -0.8558048522866987, -0.30617811685459695, 1.0816337911221008, -0.5808079242706299, 0.43489375710487366, 0.23783543705940247, -0.7199810743331909, 0.30141669511795044, -0.6251201629638672, 0.10969054698944092, -0.056513190269470215, 0.2422007918357849, 0.09219705427003386, -0.42301256938959364, 0.7382933376767193,0.5171875296718285,-0.556304931640625,0.2056732177734375,-0.3126678466796875
20230215-1533,2023-02-15 15:33:32Z,u02, 1279,100,movements,el-ex, lt, nd,281282.358214, -0.8522104774982335, -0.3113519002871933, 1.0787971446434963, -0.5008528232574463, 0.4526413381099701, 0.18585948646068573, -0.7165460586547852, 0.3063458204269409, -0.6266689896583557, 0.12654978036880493, -0.0727033019065857, 0.1804562211036682, 0.0885876986900968, -0.4228684639933187, 0.7389320077029171,0.5170241181886066,-0.61029052734375,0.244903564453125,-0.3829193115234375
20230215-1533,2023-02-15 15:33:32Z,u02, 1280,100,movements,el-ex, lt, nd,281282.368237, -0.8481695430319514, -0.31536084992298896, 1.0765041678076037, -0.35103538632392883, 0.4909951090812683, 0.12767314910888672, -0.7130809426307678, 0.3101595342159271, -0.6287420988082886, 0.1240154504776001, -0.1294955313205719, 0.09611880779266357, 0.08544435722429025, -0.4222892610240338, 0.7397150077056176,0.5169069318927582,-0.589996337890625,0.233642578125,-0.4462127685546875
20230215-1533,2023-02-15 15:33:32Z,u02, 1281,100,movements,el-ex, lt, nd,281282.37826, -0.8436076474692007, -0.3181435289466301, 1.0748140756362734, -0.2738010585308075, 0.5182309746742249, 0.0728975236415863, -0.7095577716827393, 0.31280380487442017, -0.6314123272895813, 0.08129245042800903, -0.13346728682518005, 0.0201147198677063, 0.08278686877805508, -0.42123649023485205, 0.740652987921283,0.516855121783308,-0.5890655517578125,0.1806640625,-0.532623291015625
20230215-1533,2023-02-15 15:33:32Z,u02, 1282,100,movements,el-ex, lt, nd,281282.388282, -0.8390532619769189, -0.3203544200569666, 1.072972477646798, -0.28658023476600647, 0.504244327545166, 0.025481538847088814, -0.706158459186554, 0.3149029612541199, -0.6341736912727356, 0.04191291332244873, -0.15430429577827454, 0.03290116786956787, 0.08033002434350098, -0.42007169903575303, 0.7417209378073578,0.5166592892353661,-0.628265380859375,0.1793365478515625,-0.611297607421875
20230215-1533,2023-02-15 15:33:32Z,u02, 1283,100,movements,el-ex, lt, nd,281282.39830500004, -0.834712480625801, -0.32228568487639186, 1.0707960600215978, -0.2745181620121002, 0.5030011534690857, -0.016666874289512634, -0.7029469609260559, 0.3167353868484497, -0.6368234753608704, 0.0002187490463256836, -0.11316794157028198, 0.04461461305618286, 0.07797168465257795, -0.41893754838440606, 0.7428742879839191,0.5162842423284739,-0.66424560546875,0.1605987548828125,-0.6012725830078125
20230215-1533,2023-02-15 15:33:32Z,u02, 1284,100,movements,el-ex, lt, nd,281282.408328, -0.8303711343495305, -0.32383203663502214, 1.0685302717959346, -0.24960267543792725, 0.508874237537384, -0.03769173473119736, -0.6998133063316345, 0.3182017505168915, -0.639538049697876, -0.009933948516845703, -0.06702685356140137, 0.03733468055725098, 0.07575145384915885, -0.4177232121952059, 0.7441119375311718,0.5158162828815346,-0.702728271484375,0.2035675048828125,-0.5922088623046875
20230215-1533,2023-02-15 15:33:32Z,u02, 1285,100,movements,el-ex, lt, nd,281282.41835, -0.8259787342465407, -0.32520917003645805, 1.0663767034300642, -0.23703649640083313, 0.4965156018733978, -0.03428269922733307, -0.696674644947052, 0.31950700283050537, -0.6423081159591675, 0.0019572973251342773, -0.050570905208587646, 0.01112830638885498, 0.07361168383328849, -0.41644600569495943, 0.7453562835598139,0.5153619620725407,-0.709747314453125,0.2511749267578125,-0.602203369140625
20230215-1533,2023-02-15 15:33:32Z,u02, 1286,100,movements,el-ex, lt, nd,281282.428373, -0.8216916853604382, -0.32655570903025394, 1.06440326511742, -0.2189033031463623, 0.48073822259902954, -0.015737244859337807, -0.6935989260673523, 0.3207826614379883, -0.6449953317642212, 0.02297520637512207, -0.05135825276374817, -0.000588834285736084, 0.07155047283335798, -0.41519016619850097, 0.746534685618379,0.5149597966816009,-0.6947174072265625,0.2689361572265625,-0.6311798095703125
20230215-1533,2023-02-15 15:33:32Z,u02, 1287,100,movements,el-ex, lt, nd,281282.438395, -0.8174593995420175, -0.32799941919182657, 1.0628177239082752, -0.19910620152950287, 0.46727702021598816, 0.02718966268002987, -0.6905243992805481, 0.32214975357055664, -0.6476075053215027, -0.003826737403869629, -0.006521761417388916, -0.03044724464416504, 0.0695455831724018, -0.4139560929380505, 0.7475832005739503,0.5147067208529403,-0.670623779296875,0.2694244384765625,-0.6455841064453125
