SessionID,LoggingTime,UID,RecNo,Hertz,Activity,MoveType,Wrist,Side,TimeStamp,DMRoll,DMPitch,DMYaw,DMRotX,DMRotY,DMRotZ,DMGrvX,DMGrvY,DMGrvZ,DMUAccelX,DMUAccelY,DMUAccelZ,DMQuatX,DMQuatY,DMQuatW,DMQuatZ,AccelroX,AceelroY,AceelroZ
20230215-1545,2023-02-15 15:45:20Z,u02, 1,100,movements,el-ex, lt, nd,281884.9130625417, 0.057549317595794486, 0.16127003095607043, -0.004651849187035327, -0.054921723902225494, 0.0638057142496109, 0.021003538742661476, 0.05677121877670288, -0.16057188808918, -0.9853901267051697, 0.00665958970785141, 0.012241140007972717, 0.028038442134857178, 0.08058079994250365, 0.02848985693687207, 0.9963408598196284,4.336808689942018e-19,0.0634307861328125,-0.1483306884765625,-0.9573516845703125
20230215-1545,2023-02-15 15:45:20Z,u02, 2,100,movements,el-ex, lt, nd,281884.9230855417, 0.058306651239287334, 0.16089711059734965, -0.004521739380341057, -0.02432841807603836, 0.08749639242887497, 0.008635953068733215, 0.05752095580101013, -0.16020379960536957, -0.9854065775871277, -0.0036879293620586395, 0.029268071055412292, 0.021371543407440186, 0.0803931380536283, 0.028873234549147208, 0.9963450127363184,8.987782796502459e-05,0.0538330078125,-0.1309356689453125,-0.9640350341796875
20230215-1545,2023-02-15 15:45:20Z,u02, 3,100,movements,el-ex, lt, nd,281884.93310954166, 0.05907663593113209, 0.16069049097313443, -0.004266617235758372, -0.019377335906028748, 0.07335154712200165, 0.036855872720479965, 0.058281637728214264, -0.15999984741210938, -0.9853950142860413, -0.02535315230488777, 0.0125541090965271, 0.02699047327041626, 0.08028643262930464, 0.029267536342979218, 0.9963421078951601,0.00024486286265638815,0.032928466796875,-0.1474456787109375,-0.958404541015625
20230215-1545,2023-02-15 15:45:20Z,u02, 4,100,movements,el-ex, lt, nd,281884.94313254167, 0.05973143220975902, 0.1606385767817746, -0.004030219919761022, 0.010364562273025513, 0.06759485602378845, -0.0017431050073355436, 0.05892735719680786, -0.15994858741760254, -0.9853649139404297, -0.0014169663190841675, -0.0019319355487823486, 0.017576277256011963, 0.08025699227584264, 0.029603340674786184, 0.9963344604987201,0.00038813708451529904,0.0575103759765625,-0.1618804931640625,-0.9677886962890625
20230215-1545,2023-02-15 15:45:20Z,u02, 5,100,movements,el-ex, lt, nd,281884.9531555417, 0.06047082145926835, 0.16090838686702874, -0.004182579652763127, 0.03653491288423538, 0.07079091668128967, -0.012658602558076382, 0.05965329706668854, -0.16021493077278137, -0.9852779507637024, 0.007363323122262955, 0.02076481282711029, -0.001645207405090332, 0.08039353158854554, 0.02996495488969318, 0.9963126784810984,0.00034599549487589784,0.0670166015625,-0.1394500732421875,-0.9869232177734375
20230215-1545,2023-02-15 15:45:20Z,u02, 6,100,movements,el-ex, lt, nd,281884.9631795417, 0.06112781289523805, 0.1612727263234598, -0.004137143467192076, 0.036364469677209854, 0.0655149295926094, 0.02975436858832836, 0.06029703468084335, -0.1605745404958725, -0.9851802587509155, 0.0003108978271484375, 0.025168001651763916, -0.008639931678771973, 0.08057421470593017, 0.030293239353968587, 0.9962881796404055,0.00040061745323800705,0.06060791015625,-0.135406494140625,-0.9938201904296875
20230215-1545,2023-02-15 15:45:20Z,u02, 7,100,movements,el-ex, lt, nd,281884.9732025417, 0.06159374493675305, 0.16157035323286273, -0.0036093499815337804, 0.009965887293219566, 0.03702842444181442, 0.06799203157424927, 0.06075311079621315, -0.160868301987648, -0.9851042628288269, 0.01073433831334114, 0.003748491406440735, -0.00726628303527832, 0.0807143245985652, 0.030545967209240275, 0.9962688919271736,0.0006868931638522703,0.0714874267578125,-0.1571197509765625,-0.99237060546875
20230215-1545,2023-02-15 15:45:20Z,u02, 8,100,movements,el-ex, lt, nd,281884.98322554165, 0.061837159501685904, 0.16158076112389347, -0.003188038072645213, -0.008494612760841846, 0.028202176094055176, 0.007376623805612326, 0.06099279224872589, -0.16087858378887177, -0.9850878119468689, 0.0421108640730381, -0.00507606565952301, 0.0007280707359313965, 0.08071296172844368, 0.030684200745456244, 0.9962645923114911,0.0009067467802640768,0.1031036376953125,-0.16595458984375,-0.9843597412109375
20230215-1545,2023-02-15 15:45:20Z,u02, 9,100,movements,el-ex, lt, nd,281884.9932495417, 0.06223367681851379, 0.16165103858240062, -0.0032444891533784438, 0.02274365723133087, 0.04804006218910217, -0.0033284847158938646, 0.06138268858194351, -0.16094793379306793, -0.985052227973938, 0.02962074801325798, 0.01212891936302185, -0.008371233940124512, 0.08074865938261411, 0.03087929517861679, 0.9962556759038228,0.0008957231663832828,0.09100341796875,-0.1488189697265625,-0.9934234619140625
20230215-1545,2023-02-15 15:45:20Z,u02, 10,100,movements,el-ex, lt, nd,281885.0032725417, 0.06271307000460918, 0.1618125104056769, -0.0030635764715448506, 0.0014921464025974274, 0.053883038461208344, 0.039001792669296265, 0.061853278428316116, -0.16110730171203613, -0.9849967360496521, -0.010644763708114624, 0.02422066032886505, -0.002719879150390625, 0.08082605801952923, 0.031125069287388424, 0.9962416601556475,0.0010077280770344529,0.05120849609375,-0.1368865966796875,-0.9877166748046875
20230215-1545,2023-02-15 15:45:20Z,u02, 11,100,movements,el-ex, lt, nd,281885.0132965417, 0.06322957088090868, 0.1617182123685352, -0.002717550728890166, -0.019083969295024872, 0.06306614726781845, 0.019871510565280914, 0.06236298382282257, -0.16101424396038055, -0.9849798083305359, -0.02111845463514328, -0.006420508027076721, 0.007440805435180664, 0.08077339453491285, 0.03139651627894354, 0.9962371841192413,0.001199472061444211,0.0412445068359375,-0.1674346923828125,-0.9775390625
20230215-1545,2023-02-15 15:45:20Z,u02, 12,100,movements,el-ex, lt, nd,281885.0233195417, 0.06392914379726954, 0.16167815360290286, -0.002544228106546769, 0.010717963799834251, 0.08242280781269073, 0.022928420454263687, 0.06305244565010071, -0.16097469627857208, -0.9849423766136169, -0.019320733845233917, -0.004308566451072693, 0.015231132507324219, 0.08075026600073658, 0.03175206185575139, 0.9962276344469686,0.001313419674401885,0.043731689453125,-0.165283203125,-0.9697113037109375
20230215-1545,2023-02-15 15:45:20Z,u02, 13,100,movements,el-ex, lt, nd,281885.03334254166, 0.06476416126051315, 0.16201897788155134, -0.002206728970424378, 0.05796696990728378, 0.09376014769077301, 0.040245089679956436, 0.06387130916118622, -0.161311075091362, -0.984834611415863, -0.022275835275650024, -0.003834858536720276, 0.009584367275238037, 0.08091404526014577, 0.03218098524956536, 0.9962002953728712,0.0015207586184301145,0.041595458984375,-0.1651458740234375,-0.975250244140625
20230215-1545,2023-02-15 15:45:20Z,u02, 14,100,movements,el-ex, lt, nd,281885.0433665417, 0.06565248704168915, 0.16269803230786312, -0.0018623760119776212, 0.06449000537395477, 0.08768920600414276, 0.031503159552812576, 0.0647389367222786, -0.16198119521141052, -0.984667956829071, -0.010417625308036804, 0.008523508906364441, -0.001965343952178955, 0.08124597131529976, 0.03263617033738042, 0.996158089883879,0.0017393497227676054,0.0543212890625,-0.1534576416015625,-0.98663330078125
20230215-1545,2023-02-15 15:45:20Z,u02, 15,100,movements,el-ex, lt, nd,281885.0533895417, 0.06643477945930355, 0.16333818718576074, -0.0017630908617021273, 0.06673451513051987, 0.07627037167549133, -0.003888387931510806, 0.06550232321023941, -0.16261285543441772, -0.9845133423805237, 0.00644288957118988, -0.001098737120628357, -0.02542012929916382, 0.08156248616392421, 0.03302869915450994, 0.9961190845738613,0.0018311979769814026,0.0719451904296875,-0.1637115478515625,-1.0099334716796875
20230215-1545,2023-02-15 15:45:20Z,u02, 16,100,movements,el-ex, lt, nd,281885.0634125417, 0.06716510018143915, 0.16398308997714822, -0.001810675324473425, 0.06047319620847702, 0.06554076075553894, 0.0036303550004959106, 0.06621426343917847, -0.1632491499185562, -0.98436039686203, 0.017861686646938324, 0.001368597149848938, -0.02101069688796997, 0.08188378761656877, 0.033389320165507545, 0.9960807810188366,0.001848095132518013,0.084075927734375,-0.1618804931640625,-1.00537109375
20230215-1545,2023-02-15 15:45:20Z,u02, 17,100,movements,el-ex, lt, nd,281885.07343654166, 0.09082131288938515, 0.14889821860873684, -0.005450781748590815, 0.07243930548429489, 0.058643970638513565, -0.0031639013905078173, 0.08969296514987946, -0.1483486294746399, -0.9848592877388, -0.0003527328372001648, -0.014279603958129883, -0.015125393867492676, 0.07442677515495563, 0.045066628857657776, 0.9962074359157315,0.0006614510261176195,0.0893402099609375,-0.162628173828125,-0.9999847412109375
20230215-1545,2023-02-15 15:45:20Z,u02, 18,100,movements,el-ex, lt, nd,281885.08345954167, 0.07242051527080136, 0.14336446319714616, -0.002815011298207188, 0.07037016749382019, 0.05075116083025932, -0.012060217559337616, 0.07161490619182587, -0.1428738683462143, -0.9871465563774109, 0.024683326482772827, -0.014017060399055481, -0.011052846908569336, 0.07162466040328247, 0.03600859682384877, 0.9967808011677121,0.001189869870362297,0.0962982177734375,-0.156890869140625,-0.998199462890625
20230215-1545,2023-02-15 15:45:20Z,u02, 19,100,movements,el-ex, lt, nd,281885.0934825417, 0.0625229814170429, 0.15306334099930932, -0.0014521994312296869, 0.04913678392767906, 0.055705174803733826, -0.010844218544661999, 0.061751753091812134, -0.15246637165546417, -0.9863775968551636, 0.029633156955242157, 0.005844607949256897, 0.0024145841598510742, 0.07644222729435603, 0.031109408179551483, 0.9965872867508112,0.001666148150886867,0.0913848876953125,-0.1466217041015625,-0.9839630126953125
20230215-1545,2023-02-15 15:45:20Z,u02, 20,100,movements,el-ex, lt, nd,281885.1035065417, 0.05871095761038627, 0.15750864720530075, -0.0009117461425942914, 0.013498341664671898, 0.05417358875274658, -0.01032375730574131, 0.05795087665319443, -0.1568581759929657, -0.9859194755554199, 0.019121289253234863, -0.010576561093330383, 0.022357463836669922, 0.07865237297505363, 0.0292244347455515, 0.9964719524005147,0.0018548854467756904,0.0770721435546875,-0.1674346923828125,-0.96356201171875
20230215-1545,2023-02-15 15:45:20Z,u02, 21,100,movements,el-ex, lt, nd,281885.1135295417, 0.05597686095829868, 0.1596348192937807, -0.0004834566711639296, -0.009041056036949158, 0.03869449719786644, -0.010090730153024197, 0.05523627996444702, -0.15895767509937286, -0.98573899269104, 0.02018793299794197, -0.012307032942771912, 0.026922523975372314, 0.07970819773129882, 0.02787641320970976, 0.9964264133801001,0.001990436807765209,0.0754241943359375,-0.1712646484375,-0.9588165283203125
20230215-1545,2023-02-15 15:45:20Z,u02, 22,100,movements,el-ex, lt, nd,281885.12355254166, 0.056186635282973796, 0.1586143197806733, -0.0007830336264759187, 0.0173061303794384, 0.03805826976895332, -0.05218864977359772, 0.0554521419107914, -0.15795007348060608, -0.9858888387680054, 0.027174215763807297, -0.0073636919260025024, 0.029559552669525146, 0.07920374897230756, 0.027970325541878074, 0.9964642471026287,0.0018352415014937515,0.0826263427734375,-0.165313720703125,-0.956329345703125
20230215-1545,2023-02-15 15:45:20Z,u02, 23,100,movements,el-ex, lt, nd,281885.1335765417, 0.05879520815833469, 0.158969818111422, -0.0016508814588662493, -0.01572958379983902, 0.02564394474029541, -0.04214240610599518, 0.05802041292190552, -0.15830110013484955, -0.9856847524642944, 0.014748774468898773, 0.004416152834892273, 0.044507384300231934, 0.07939108389722632, 0.0292350420213904, 0.9964137012519386,0.00151138968375075,0.0727691650390625,-0.1538848876953125,-0.9411773681640625
20230215-1545,2023-02-15 15:45:20Z,u02, 24,100,movements,el-ex, lt, nd,281885.1435995417, 0.0621644619814168, 0.15859452382794795, -0.002486019061967888, -0.05570180341601372, 0.018502676859498024, -0.03036515973508358, 0.06134478375315666, -0.15793052315711975, -0.985542893409729, -0.0031324848532676697, -0.017194658517837524, 0.040230393409729004, 0.07921436098798537, 0.03088112655153062, 0.9963785142810473,0.0012232499070715809,0.0582122802734375,-0.1751251220703125,-0.9453125
20230215-1545,2023-02-15 15:45:20Z,u02, 25,100,movements,el-ex, lt, nd,281885.1536235417, 0.0650271421289929, 0.15842786536385672, -0.0031326828680188095, -0.013974866829812527, 0.023087842389941216, -0.022041717544198036, 0.06416752934455872, -0.1577659547328949, -0.9853894710540771, 0.004069782793521881, -0.012873128056526184, 0.048637211322784424, 0.07913995412997722, 0.03228198422037296, 0.9963401779793292,0.0010117747866351318,0.0682373046875,-0.1706390380859375,-0.9367523193359375
20230215-1545,2023-02-15 15:45:20Z,u02, 26,100,movements,el-ex, lt, nd,281885.1636465417, 0.06770065863789526, 0.15797507124646526, -0.003702794467462378, -0.03695545345544815, 0.03070501610636711, -0.01893511414527893, 0.06680657714605331, -0.1573188155889511, -0.9852855801582336, -0.0013005807995796204, 0.00044314563274383545, 0.05184441804885864, 0.07892255394613001, 0.03359228485074382, 0.9963142426330294,0.0008258937466005842,0.0655059814453125,-0.1568756103515625,-0.933441162109375
20230215-1545,2023-02-15 15:45:20Z,u02, 27,100,movements,el-ex, lt, nd,281885.17366954166, 0.06964943658405048, 0.15678806634673914, -0.004213648092261678, -0.042817872017621994, 0.006749614141881466, -0.040560245513916016, 0.06873950362205505, -0.15614648163318634, -0.9853391051292419, -0.01016099750995636, -0.02140483260154724, 0.03219890594482422, 0.07833923716437377, 0.034545777631492955, 0.9963277930053509,0.000627619222816864,0.0585784912109375,-0.17755126953125,-0.9531402587890625
20230215-1545,2023-02-15 15:45:20Z,u02, 28,100,movements,el-ex, lt, nd,281885.1836935417, 0.07043488781588264, 0.15732199946946662, -0.004982388180877061, -0.033686425536870956, -0.0012720930390059948, -0.09514279663562775, 0.06950753927230835, -0.1566738486289978, -0.9852014780044556, -0.0007666721940040588, -0.017367959022521973, 0.016192138195037842, 0.07861837756454043, 0.0349055419748156, 0.9962935013787274,0.0002848542348611188,0.0687408447265625,-0.174041748046875,-0.9690093994140625
20230215-1545,2023-02-15 15:45:20Z,u02, 29,100,movements,el-ex, lt, nd,281885.1937165417, 0.07088112800087296, 0.15798506808788979, -0.0063087912136525915, -0.04935566708445549, -0.04138622060418129, -0.15982937812805176, 0.06993979960680008, -0.15732869505882263, -0.9850665330886841, -0.0016567036509513855, -0.00653548538684845, -0.0037487149238586426, 0.07897188027058626, 0.03507371800212186, 0.9962596675582466,-0.0003465497882161363,0.0682830810546875,-0.1638641357421875,-0.9888153076171875
20230215-1545,2023-02-15 15:45:20Z,u02, 30,100,movements,el-ex, lt, nd,281885.2037395417, 0.07131874614150122, 0.15763828058988505, -0.008386612075123789, -0.11883964389562607, -0.09307924658060074, -0.23475830256938934, 0.0703747570514679, -0.15698620676994324, -0.9850901961326599, -0.004731424152851105, -0.031032636761665344, -0.019456923007965088, 0.07883583533189124, 0.0352108554382757, 0.9962647274168118,-0.0013705058496605482,0.065643310546875,-0.188018798828125,-1.004547119140625
20230215-1545,2023-02-15 15:45:20Z,u02, 31,100,movements,el-ex, lt, nd,281885.21376354166, 0.07067594649721694, 0.15615687357053498, -0.01106147553990815, -0.17196011543273926, -0.1779738962650299, -0.3086852729320526, 0.0697578713297844, -0.15552300214767456, -0.98536616563797, 0.0072685182094573975, -0.05205760896205902, -0.01506108045578003, 0.0781440486691219, 0.03479132127695801, 0.9963310210953576,-0.002754702082238866,0.0770263671875,-0.20758056640625,-1.00042724609375
20230215-1545,2023-02-15 15:45:20Z,u02, 32,100,movements,el-ex, lt, nd,281885.22378654167, 0.06873574581170941, 0.1558195193043031, -0.014653747209095255, -0.09619458019733429, -0.21240723133087158, -0.45076215267181396, 0.0678495317697525, -0.15518973767757416, -0.9855518937110901, 0.02030051499605179, -0.09738904237747192, -0.008741259574890137, 0.07803390790821496, 0.033686039110295, 0.9963707324540046,-0.004625982820230031,0.0881500244140625,-0.2525787353515625,-0.994293212890625
20230215-1545,2023-02-15 15:45:20Z,u02, 33,100,movements,el-ex, lt, nd,281885.2338095417, 0.06835867452827027, 0.156911805492213, -0.020344249950424463, 0.27319464087486267, -0.02158988080918789, -0.6326581835746765, 0.06746628880500793, -0.15626870095729828, -0.9854077100753784, -0.0037608295679092407, -0.12194482982158661, -0.022435247898101807, 0.07867214439068045, 0.03326903614212242, 0.9963173707923231,-0.007456576497690725,0.0637054443359375,-0.2782135009765625,-1.007843017578125
20230215-1545,2023-02-15 15:45:20Z,u02, 34,100,movements,el-ex, lt, nd,281885.2438335417, 0.07089684268482085, 0.15891306215712428, -0.025594164099407585, 0.08875563740730286, 0.363916277885437, -0.3044629693031311, 0.06994490325450897, -0.1582450568675995, -0.9849193692207336, -0.10603191703557968, -0.1464577466249466, -0.05879700183868408, 0.07976868986143446, 0.03431121187619791, 0.9961731706669933,-0.009935518761799005,-0.0360870361328125,-0.3047027587890625,-1.0437164306640625
20230215-1545,2023-02-15 15:45:20Z,u02, 35,100,movements,el-ex, lt, nd,281885.2538565417, 0.07265740622770261, 0.1544297895443071, -0.02296511766803085, -0.9035192728042603, -0.1658376008272171, 0.6420162320137024, 0.07172959297895432, -0.15381669998168945, -0.9854924082756042, -0.15009871125221252, -0.23134571313858032, -0.019115746021270752, 0.07749801483484826, 0.035324965011577066, 0.9963290387004089,-0.008639011023478034,-0.078369140625,-0.385162353515625,-1.004608154296875
20230215-1545,2023-02-15 15:45:20Z,u02, 36,100,movements,el-ex, lt, nd,281885.26388054166, 0.06700726277798806, 0.14289880215449738, -0.015519215691653362, -1.5358043909072876, -0.6696435213088989, 0.4914177656173706, 0.06627465784549713, -0.1424129605293274, -0.9875860810279846, 0.09133338928222656, -0.6503117084503174, -0.08977597951889038, 0.07160567537694051, 0.032857261016929706, 0.9968773479500112,-0.0053441299022994595,0.1576080322265625,-0.792724609375,-1.077362060546875
20230215-1545,2023-02-15 15:45:20Z,u02, 37,100,movements,el-ex, lt, nd,281885.2739035417, 0.05904639898811489, 0.1274221427577066, -0.013934232296595645, -1.3812081813812256, -0.8090522885322571, -0.3480931520462036, 0.058533668518066406, -0.1270776093006134, -0.9901641607284546, 0.2432546764612198, -0.24238349497318268, -0.12511593103408813, 0.06384393544121438, 0.029014922385651967, 0.9975250660343064,-0.005070530945841735,0.301788330078125,-0.3694610595703125,-1.1152801513671875
20230215-1545,2023-02-15 15:45:20Z,u02, 38,100,movements,el-ex, lt, nd,281885.2839265417, 0.05419486512709649, 0.11785839283027441, -0.017703259295569544, -0.5169476270675659, -0.09828945249319077, -0.21401765942573547, 0.0537925586104393, -0.11758572608232498, -0.991604745388031, -0.00444561243057251, 0.416932612657547, -0.035754263401031494, 0.05911057460607596, 0.026524906523358174, 0.9978727514523544,-0.007237257389295249,0.049346923828125,0.299346923828125,-1.0273590087890625
20230215-1545,2023-02-15 15:45:20Z,u02, 39,100,movements,el-ex, lt, nd,281885.2939505417, 0.054327001338136956, 0.11448257883932217, -0.013778302100361788, -0.13398268818855286, 0.003846768755465746, 0.7063028812408447, 0.05394483357667923, -0.11423266679048538, -0.9919883608818054, -0.08977244794368744, 0.4891563355922699, -0.00497514009475708, 0.05737437600340514, 0.026721053062680033, 0.9979808810942795,-0.005321479238282764,-0.03582763671875,0.3749237060546875,-0.9969635009765625
20230215-1545,2023-02-15 15:45:21Z,u02, 40,100,movements,el-ex, lt, nd,281885.3039735417, 0.05226755354171605, 0.11622179379674501, -0.010756893319851957, 0.3288019299507141, -0.3653331398963928, -0.1678440123796463, 0.05189131572842598, -0.11596032232046127, -0.9918974041938782, 0.1346016228199005, 0.03598897159099579, 0.05671679973602295, 0.058197833621575, 0.02577405597083341, 0.9979648203484985,-0.003849900822085931,0.186492919921875,-0.0799713134765625,-0.9351806640625
20230215-1545,2023-02-15 15:45:21Z,u02, 41,100,movements,el-ex, lt, nd,281885.31399654166, 0.04799668283898216, 0.11771516999556227, -0.016319613868521033, -0.01929934322834015, -0.5390913486480713, -0.7877099514007568, 0.04764622822403908, -0.1174434944987297, -0.9919359087944031, -0.028649013489484787, -0.06842385977506638, -0.10886365175247192, 0.059000176879766955, 0.023473843974406716, 0.9979591959881717,-0.006731755083378495,0.0189971923828125,-0.1858673095703125,-1.100799560546875
20230215-1545,2023-02-15 15:45:21Z,u02, 42,100,movements,el-ex, lt, nd,281885.3240205417, 0.044145690387341494, 0.11549348591296703, -0.023148063790897302, -0.32001325488090515, -0.39537838101387024, -0.5182037353515625, 0.043837349861860275, -0.11523690074682236, -0.9923702478408813, -0.05511357635259628, -0.07310238480567932, -0.04367101192474365, 0.05795174934908299, 0.02136497356482126, 0.9980378279446263,-0.010277928890546455,-0.0112762451171875,-0.1883392333984375,-1.036041259765625
20230215-1545,2023-02-15 15:45:21Z,u02, 43,100,movements,el-ex, lt, nd,281885.3340435417, 0.0406902230184247, 0.11186448159966897, -0.02652418207642754, -0.3612578809261322, -0.4089820683002472, -0.236266627907753, 0.040424738079309464, -0.11163131892681122, -0.9929271340370178, -0.005375277251005173, -0.15326130390167236, -0.08184093236923218, 0.056155970190293086, 0.01956889238042952, 0.9981568267065578,-0.012101047775164173,0.0350494384765625,-0.264892578125,-1.07476806640625
20230215-1545,2023-02-15 15:45:21Z,u02, 44,100,movements,el-ex, lt, nd,281885.3440665417, 0.03613947055415828, 0.10755884697852142, -0.02929437081421726, -0.517901599407196, -0.5679262280464172, -0.3853563070297241, 0.03592280298471451, -0.10735157877206802, -0.993571937084198, 0.06983588635921478, -0.16175247728824615, -0.1112712025642395, 0.05400322709045638, 0.017253512486693184, 0.9982983517277744,-0.01365194381702914,0.1057586669921875,-0.26910400390625,-1.1048431396484375
20230215-1545,2023-02-15 15:45:21Z,u02, 45,100,movements,el-ex, lt, nd,281885.35409054166, 0.030295761221749064, 0.10031568288591214, -0.034064883026024055, -0.899268388748169, -0.6835069060325623, -0.6066588759422302, 0.030138840898871422, -0.10014751553535461, -0.9945160150527954, 0.14655795693397522, -0.038676999509334564, 0.0017791986465454102, 0.05038144660285831, 0.014272243711900274, 0.9984958879337973,-0.016248919163169943,0.17669677734375,-0.138824462890625,-0.99273681640625
20230215-1545,2023-02-15 15:45:21Z,u02, 46,100,movements,el-ex, lt, nd,281885.36411354167, 0.023553374720737125, 0.0902939922780934, -0.04080363039186846, -0.9890425801277161, -0.8069766163825989, -0.7776041030883789, 0.02345525659620762, -0.09017134457826614, -0.995650053024292, 0.19534054398536682, 0.03754373639822006, 0.10334658622741699, 0.045359136881963226, 0.010841326872954415, 0.9987147649525357,-0.019846820486314684,0.2187957763671875,-0.0526275634765625,-0.892303466796875
20230215-1545,2023-02-15 15:45:21Z,u02, 47,100,movements,el-ex, lt, nd,281885.3741365417, 0.015387829637791312, 0.0815355761420853, -0.04866049959929763, -0.7313787937164307, -0.9294572472572327, -0.8078358173370361, 0.015336102806031704, -0.08144526183605194, -0.9965597987174988, 0.1939839869737625, -0.08165597915649414, 0.2833334803581238, 0.04093024628034658, 0.006693682329659185, 0.9988514650997127,-0.023993434792052497,0.209320068359375,-0.1631011962890625,-0.713226318359375
20230215-1545,2023-02-15 15:45:21Z,u02, 48,100,movements,el-ex, lt, nd,281885.3841605417, 0.006676878717526394, 0.07458132624240729, -0.056673440420631487, -0.6633734703063965, -0.9162341356277466, -0.7961960434913635, 0.0066582681611180305, -0.07451220601797104, -0.9971978664398193, 0.053842853754758835, -0.19764360785484314, 0.37734007835388184, 0.037361368669036624, 0.0022784699833988866, 0.9989015474735338,-0.028188659735111248,0.0605010986328125,-0.27215576171875,-0.6198577880859375
20230215-1545,2023-02-15 15:45:21Z,u02, 49,100,movements,el-ex, lt, nd,281885.3941835417, -0.0013346129002185748, 0.06800194343741439, -0.06420387189236242, -0.6256407499313354, -0.7688785195350647, -0.6911511421203613, -0.0013315279502421618, -0.06794954836368561, -0.9976878762245178, -0.15551353991031647, -0.16485384106636047, 0.3104777932167053, 0.03395549366106946, -0.0017576762495661786, 0.9989061224852372,-0.032100538185501376,-0.1568450927734375,-0.2328033447265625,-0.6872100830078125
20230215-1545,2023-02-15 15:45:21Z,u02, 50,100,movements,el-ex, lt, nd,281885.40420629166, -0.007667316081024068, 0.062330453443493236, -0.07031117140346564, -0.512357234954834, -0.5750909447669983, -0.5236045122146606, -0.0076523516327142715, -0.06229010224342346, -0.9980287551879883, -0.2867201864719391, -0.08793272078037262, 0.21096515655517578, 0.031006019594515356, -0.004924640428399115, 0.9988852344738227,-0.03525040318230307,-0.29437255859375,-0.1502227783203125,-0.7870635986328125
20230215-1545,2023-02-15 15:45:21Z,u02, 51,100,movements,el-ex, lt, nd,281885.41422929167, -0.012496921814694908, 0.057647778359732914, -0.07521718857506624, -0.43914082646369934, -0.4578300416469574, -0.4582825005054474, -0.012475837953388691, -0.05761585384607315, -0.9982608556747437, -0.288702130317688, 0.013624712824821472, 0.15448033809661865, 0.02856411619901657, -0.007325007696458398, 0.9988514974957073,-0.03776332991157811,-0.301177978515625,-0.0439910888671875,-0.843780517578125
20230215-1545,2023-02-15 15:45:21Z,u02, 52,100,movements,el-ex, lt, nd,281885.4242522917, -0.01677917681224848, 0.05412937649727383, -0.0799364800379818, -0.24836942553520203, -0.4754122197628021, -0.47952842712402344, -0.01675381511449814, -0.05410294607281685, -0.998394787311554, -0.16999848186969757, 0.12925243377685547, 0.06495368480682373, 0.02670372074896758, -0.00946099033266449, 0.9987911773218903,-0.04016841197438556,-0.1867523193359375,0.0751495361328125,-0.933441162109375
20230215-1545,2023-02-15 15:45:21Z,u02, 53,100,movements,el-ex, lt, nd,281885.4342762917, -0.022037955360740845, 0.05239483320588108, -0.08520444663612925, -0.18648794293403625, -0.641546905040741, -0.5752642750740051, -0.022005930542945862, -0.052370864897966385, -0.9983851909637451, 0.00021640583872795105, 0.146319180727005, -0.03742712736129761, 0.025699942868141083, -0.01212051427505983, 0.9986769517799553,-0.042860505709106565,-0.02178955078125,0.0939483642578125,-1.0358123779296875
20230215-1545,2023-02-15 15:45:21Z,u02, 54,100,movements,el-ex, lt, nd,281885.4442992917, -0.029252826261513917, 0.048991718094323025, -0.09165352263896567, -0.5266490578651428, -0.8547359108924866, -0.6831904053688049, -0.02921356074512005, -0.04897212237119675, -0.9983728528022766, 0.1430441439151764, 0.13185781240463257, -0.1460363268852234, 0.02379525460533731, -0.01572809296878553, 0.9985272676041845,-0.04614994001801464,0.11383056640625,0.0828857421875,-1.1444091796875
20230215-1545,2023-02-15 15:45:21Z,u02, 55,100,movements,el-ex, lt, nd,281885.4543222917, -0.03832373965495152, 0.0429982670261443, -0.09873996695530377, -0.6992650628089905, -1.0153602361679077, -0.6639514565467834, -0.03827894479036331, -0.04298501834273338, -0.9983421564102173, 0.2083381712436676, 0.1371011734008789, -0.24029004573822021, 0.02052198060452541, -0.020193631511684032, 0.9983471347473684,-0.04974087036837886,0.1700592041015625,0.0941162109375,-1.2386322021484375
20230215-1545,2023-02-15 15:45:21Z,u02, 56,100,movements,el-ex, lt, nd,281885.4643462917, -0.048841386498095475, 0.03567651756866743, -0.10468677679023318, -0.7807229161262512, -1.1395220756530762, -0.43487125635147095, -0.04879090189933777, -0.03566895052790642, -0.9981719255447388, 0.22522830963134766, 0.05181270092725754, -0.18578803539276123, 0.0165302235382195, -0.02531390404515863, 0.9981510129723337,-0.05273052796587871,0.1764373779296875,0.016143798828125,-1.1839599609375
20230215-1545,2023-02-15 15:45:21Z,u02, 57,100,movements,el-ex, lt, nd,281885.4743692917, -0.06103720765323955, 0.02903411628312336, -0.10847705443705273, -0.5734965205192566, -1.301210880279541, -0.2821749150753021, -0.06097360700368881, -0.02903003804385662, -0.9977171421051025, 0.2238001674413681, -0.1634901463985443, -0.05349135398864746, 0.01283440958791532, -0.03125238752507668, 0.9979353057080566,-0.05462328829762454,0.1628265380859375,-0.1925201416015625,-1.05120849609375
20230215-1545,2023-02-15 15:45:21Z,u02, 58,100,movements,el-ex, lt, nd,281885.4843922917, -0.07397241263705794, 0.023083905987685015, -0.11221531319869592, -0.7337605357170105, -1.2899483442306519, -0.4148727059364319, -0.07388527691364288, -0.023081855848431587, -0.9969996213912964, 0.18077310919761658, -0.44077011942863464, 0.1262873411178589, 0.00944214371489584, -0.03756392167656526, 0.997653139656515,-0.056462252887145355,0.1068878173828125,-0.4638519287109375,-0.8707122802734375
20230215-1545,2023-02-15 15:45:21Z,u02, 59,100,movements,el-ex, lt, nd,281885.4944162917, -0.0862906497892402, 0.01425589091179919, -0.11807120015223363, -1.0768020153045654, -1.1660258769989014, -0.5944116115570068, -0.0861748456954956, -0.014255408197641373, -0.9961780309677124, 0.1110924705862999, -0.4045983850955963, 0.2926257848739624, 0.004564069350697044, -0.0434758715678249, 0.9972853916248503,-0.05925181577149288,0.0249176025390625,-0.418853759765625,-0.70355224609375
20230215-1545,2023-02-15 15:45:21Z,u02, 60,100,movements,el-ex, lt, nd,281885.50443929166, -0.09679163573679972, 0.0044982072672247134, -0.12509117254579585, -0.9201404452323914, -0.9455747008323669, -0.6033534407615662, -0.09663959592580795, -0.004498192109167576, -0.9953092932701111, 0.031209930777549744, -0.22171340882778168, 0.4596495032310486, -0.0007817072165945921, -0.048422625827678985, 0.9968668277170225,-0.06254006242720596,-0.0654296875,-0.2262115478515625,-0.5356597900390625
20230215-1545,2023-02-15 15:45:21Z,u02, 61,100,movements,el-ex, lt, nd,281885.51446229167, -0.1053319368240699, -0.0022395728069054487, -0.13156766837241385, -0.5645993947982788, -0.7617918252944946, -0.5505999326705933, -0.10513700544834137, 0.002239570952951908, -0.9944552183151245, -0.06089384853839874, -0.14419212937355042, 0.446222186088562, -0.004576283599989794, -0.05245422154907839, 0.9964567305145358,-0.065586391809555,-0.1660308837890625,-0.1419525146484375,-0.5482330322265625
20230215-1545,2023-02-15 15:45:21Z,u02, 62,100,movements,el-ex, lt, nd,281885.5244862917, -0.11194356059114932, -0.005743289356973437, -0.13763071593319823, -0.24928276240825653, -0.540743350982666, -0.5859190821647644, -0.11170806735754013, 0.005743257701396942, -0.9937244653701782, -0.16336211562156677, -0.058828629553318024, 0.4006611108779907, -0.006707011295798596, -0.05561277437724716, 0.9960777960426648,-0.06849282706605878,-0.2750701904296875,-0.0530853271484375,-0.5930633544921875
20230215-1545,2023-02-15 15:45:21Z,u02, 63,100,movements,el-ex, lt, nd,281885.5345092917, -0.1160790445732915, -0.005883091747711321, -0.144015929571436, 0.07075753808021545, -0.27939772605895996, -0.6839795708656311, -0.11581653356552124, 0.005883057601749897, -0.9932531714439392, -0.28259041905403137, 0.023413771763443947, 0.3816657066345215, -0.007102313095096875, -0.0576450929208212, 0.9957370938305025,-0.07165410767519152,-0.398406982421875,0.029296875,-0.6115875244140625
20230215-1545,2023-02-15 15:45:21Z,u02, 64,100,movements,el-ex, lt, nd,281885.54453329166, -0.11826841314408079, -0.0034549857616464753, -0.15175172507679657, 0.1848093569278717, -0.1566651463508606, -0.9270038604736328, -0.11799219250679016, 0.003454978810623288, -0.9930084943771362, -0.35492342710494995, 0.1584407240152359, 0.2764405608177185, -0.006199446803063548, -0.05879889796307038, 0.9953861916503896,-0.07556866631126315,-0.4729156494140625,0.161895751953125,-0.7165679931640625
20230215-1545,2023-02-15 15:45:21Z,u02, 65,100,movements,el-ex, lt, nd,281885.55455629167, -0.11992106644439904, -0.0009902757156806186, -0.1625291742465294, 0.018926378339529037, -0.20535172522068024, -1.2641241550445557, -0.11963377892971039, 0.000990275526419282, -0.9928175806999207, -0.35077938437461853, 0.4308028817176819, -0.04351353645324707, -0.005357007121821826, -0.059686723208288224, 0.9949109607605043,-0.08099971091706347,-0.4704132080078125,0.431793212890625,-1.0363311767578125
20230215-1545,2023-02-15 15:45:21Z,u02, 66,100,movements,el-ex, lt, nd,281885.5645792917, -0.12287760485887932, 0.0006478839885053874, -0.17526758750292823, 0.10324106365442276, -0.38725894689559937, -1.2162501811981201, -0.12256859242916107, -0.0006478839204646647, -0.9924598336219788, -0.31920385360717773, 0.7571023106575012, -0.48733752965927124, -0.005051753997272257, -0.061192836543893625, 0.9942812932990293,-0.08737634617723908,-0.4417724609375,0.7564544677734375,-1.47979736328125
20230215-1545,2023-02-15 15:45:21Z,u02, 67,100,movements,el-ex, lt, nd,281885.5746032917, -0.1279140379789959, 0.006528570155742463, -0.18410273436677843, 0.8610494136810303, -0.6419327855110168, -0.6589552760124207, -0.1275627762079239, -0.006528523750603199, -0.9918090105056763, -0.24234075844287872, 0.6366859674453735, -0.6784943342208862, -0.002631167885390296, -0.06394193555660219, 0.9937059222179225,-0.09194074199179121,-0.369903564453125,0.630157470703125,-1.6703033447265625
20230215-1545,2023-02-15 15:45:21Z,u02, 68,100,movements,el-ex, lt, nd,281885.5846262917, -0.1360585851687533, 0.01722651653537481, -0.18770630373508523, 1.0181854963302612, -0.978827178478241, -0.42325717210769653, -0.13561905920505524, -0.017225664108991623, -0.9906113147735596, -0.11871440708637238, -0.02893221750855446, -0.5650680065155029, 0.0021851692852519135, -0.06848046944081215, 0.9932044724033142,-0.09407809873418957,-0.25433349609375,-0.0461578369140625,-1.5556793212890625
20230215-1545,2023-02-15 15:45:21Z,u02, 69,100,movements,el-ex, lt, nd,281885.59464929166, -0.1462306438537207, 0.025304361530576105, -0.19229993077878907, 0.4353426396846771, -1.0106258392333984, -0.7510792016983032, -0.14566339552402496, -0.02530166134238243, -0.9890106320381165, -0.07702334225177765, -0.5126469731330872, -0.29887694120407104, 0.005547365659041396, -0.07391831642999093, 0.9925536747025065,-0.09665767245031404,-0.222686767578125,-0.5379486083984375,-1.2878875732421875
20230215-1545,2023-02-15 15:45:21Z,u02, 71,100,movements,el-ex, lt, nd,281885.6146962917, -0.1580261727853937, 0.033415187661768264, -0.21006830030824417, 0.36683470010757446, -0.20630194246768951, -0.9001423120498657, -0.15728142857551575, -0.03340896964073181, -0.9869885444641113, -0.26318973302841187, -0.5307390093803406, 0.05388307571411133, 0.008288859019035307, -0.08023104793871284, 0.991109671240752,-0.10581086340395437,-0.330535888671875,-0.6554107666015625,-1.028228759765625
20230215-1545,2023-02-15 15:45:21Z,u02, 71,100,movements,el-ex, lt, nd,281885.6046732917, -0.1542996397939784, 0.029434559835854076, -0.20088925731292562, 0.1825743168592453, -0.614348828792572, -1.0089428424835205, -0.15362152457237244, -0.029430309310555458, -0.9876914024353027, -0.17691433429718018, -0.6259804964065552, -0.040537357330322266, 0.006871264431694727, -0.0781478729099244, 0.9917789439729415,-0.10109525922030425,-0.42047119140625,-0.56414794921875,-0.93310546875
20230215-1545,2023-02-15 15:45:21Z,u02, 72,100,movements,el-ex, lt, nd,281885.6247192917, -0.15863072031401398, 0.0393181384044745, -0.21769657723488955, 0.49200141429901123, 0.01571647822856903, -0.8080993890762329, -0.1578441858291626, -0.039308007806539536, -0.986681342124939, -0.2040484994649887, -0.19706593453884125, -0.022763848304748535, 0.010874422088114167, -0.080876877656466, 0.9905960166583248,-0.10981933817837138,-0.3618927001953125,-0.2363739013671875,-1.0094451904296875
20230215-1545,2023-02-15 15:45:21Z,u02, 73,100,movements,el-ex, lt, nd,281885.6347432917, -0.1580646722002236, 0.045964951481684495, -0.22476868429254906, 0.5977989435195923, 0.011591773480176926, -0.772443413734436, -0.15724104642868042, -0.04594876617193222, -0.9864907264709473, -0.04518201947212219, 0.26118919253349304, -0.046239376068115234, 0.013912451872421468, -0.08100048043098335, 0.9901247115148869,-0.11357119542168713,-0.202423095703125,0.215240478515625,-1.0327301025390625
20230215-1545,2023-02-15 15:45:21Z,u02, 74,100,movements,el-ex, lt, nd,281885.64476629166, -0.15748697135328346, 0.05600642153715592, -0.22984623385539135, 1.366926670074463, 0.06140114367008209, -0.5300976634025574, -0.15659086406230927, -0.055977147072553635, -0.9860759973526001, 0.11401887238025665, 0.47161126136779785, 0.1627269983291626, 0.0187119906917594, -0.0813133771784774, 0.9896845793441891,-0.11645814077378255,-0.042572021484375,0.4156341552734375,-0.8233489990234375
20230215-1545,2023-02-15 15:45:21Z,u02, 75,100,movements,el-ex, lt, nd,281885.6547902917, -0.15730001712394417, 0.07353355533778526, -0.23138424580087394, 1.814927339553833, -0.052800796926021576, -0.34761282801628113, -0.15622879564762115, -0.07346730679273605, -0.984984815120697, 0.24720172584056854, 0.19686508178710938, 0.12940925359725952, 0.027336481222779527, -0.08222105305212923, 0.9892418456979503,-0.11786836832989257,0.090972900390625,0.1233978271484375,-0.8555755615234375
20230215-1545,2023-02-15 15:45:21Z,u02, 76,100,movements,el-ex, lt, nd,281885.6648132917, -0.15817069222185529, 0.0888459767091639, -0.23297131961242198, 1.1202131509780884, -0.1393415480852127, -0.46985185146331787, -0.15689073503017426, -0.0887291356921196, -0.9836220741271973, 0.38330069184303284, -0.09880141168832779, 0.003794252872467041, 0.0347967176622039, -0.08353525336551672, 0.9887342133047888,-0.11922946076477806,0.226409912109375,-0.187530517578125,-0.979827880859375
20230215-1545,2023-02-15 15:45:21Z,u02, 77,100,movements,el-ex, lt, nd,281885.6748362917, -0.15853267775432783, 0.09787436105465143, -0.237345006673349, 0.5713950991630554, 0.0011401982046663761, -0.6665854454040527, -0.1571139097213745, -0.09771817177534103, -0.9827341437339783, 0.4135378897190094, -0.06654273718595505, 0.01645606756210327, 0.039057454824044886, -0.08430568022737141, 0.9882052463219186,-0.12172732317014666,0.2564239501953125,-0.1642608642578125,-0.966278076171875
20230215-1545,2023-02-15 15:45:21Z,u02, 78,100,movements,el-ex, lt, nd,281885.68486029166, -0.15728157450319943, 0.10331995278966899, -0.24386562166050504, 0.32217052578926086, 0.09222110360860825, -0.7600075602531433, -0.15579862892627716, -0.10313622653484344, -0.9823898077011108, 0.40062591433525085, 0.05784809589385986, -0.04309237003326416, 0.04155266843328924, -0.08413370054097091, 0.9876942263811973,-0.12511969464683526,0.2448272705078125,-0.0452880859375,-1.025482177734375
20230215-1545,2023-02-15 15:45:21Z,u02, 79,100,movements,el-ex, lt, nd,281885.69488329167, -0.15622634493243356, 0.10699404950090313, -0.2508407072628733, 0.2109539955854416, -0.04531225562095642, -0.7095555663108826, -0.15470188856124878, -0.10679002851247787, -0.9821727275848389, 0.42614051699638367, 0.2215360701084137, 0.002161741256713867, 0.043142313682131735, -0.08397850760544612, 0.9871828433991042,-0.12867174814971316,0.2714385986328125,0.11474609375,-0.980010986328125
20230215-1545,2023-02-15 15:45:21Z,u02, 80,100,movements,el-ex, lt, nd,281885.7049062917, -0.15667717338009157, 0.11105006805924579, -0.2570560957406378, 0.4202863276004791, -0.17549316585063934, -0.6411916017532349, -0.155075803399086, -0.11082196235656738, -0.9816669225692749, 0.3867653012275696, 0.32368203997612, 0.07337230443954468, 0.04485467342326894, -0.08458479324202028, 0.9866296006378884,-0.13189170159976973,0.231689453125,0.212860107421875,-0.908294677734375
20230215-1545,2023-02-15 15:45:21Z,u02, 81,100,movements,el-ex, lt, nd,281885.7149302917, -0.1583352613384342, 0.11700792153940617, -0.2623777888347127, 0.5644935369491577, -0.27027052640914917, -0.5782259106636047, -0.15659639239311218, -0.1167411133646965, -0.9807390570640564, 0.24877476692199707, 0.2884939908981323, 0.1147875189781189, 0.04745896055840162, -0.08589599467034671, 0.9860061525815905,-0.1347644928060036,0.0921783447265625,0.1717529296875,-0.8659515380859375
20230215-1545,2023-02-15 15:45:21Z,u02, 82,100,movements,el-ex, lt, nd,281885.7249532917, -0.16041303708792098, 0.12428057001869931, -0.2662010807818366, 0.7816176414489746, -0.21715804934501648, -0.38156214356422424, -0.1584940105676651, -0.12396088242530823, -0.9795475006103516, 0.10096840560436249, 0.16898953914642334, 0.20611006021499634, 0.05074105314597812, -0.08747333411123201, 0.9854016495155825,-0.1369574496051758,-0.057525634765625,0.0450286865234375,-0.7734375
20230215-1545,2023-02-15 15:45:21Z,u02, 83,100,movements,el-ex, lt, nd,281885.73497629166, -0.16182987141004793, 0.13373793335071163, -0.2669618275702736, 1.0088376998901367, -0.08211394399404526, -0.06753471493721008, -0.1596856564283371, -0.13333961367607117, -0.9781211614608765, -0.007275968790054321, -0.06612332165241241, 0.31967389583587646, 0.05527531929632359, -0.0887921774463455, 0.984935402210925,-0.13770572838925804,-0.166961669921875,-0.199462890625,-0.658447265625
20230215-1545,2023-02-15 15:45:21Z,u02, 84,100,movements,el-ex, lt, nd,281885.7450002917, -0.16229544162490653, 0.14285018559652388, -0.2644606648253958, 0.8393798470497131, 0.0620938315987587, 0.2603715658187866, -0.1599380522966385, -0.14236484467983246, -0.9768070578575134, -0.08296659588813782, -0.2719570994377136, 0.4407963156700134, 0.059848640111613276, -0.08952429688247066, 0.9847265992195879,-0.13681061210739032,-0.2429046630859375,-0.4143218994140625,-0.5360107421875
20230215-1545,2023-02-15 15:45:21Z,u02, 85,100,movements,el-ex, lt, nd,281885.7550232917, -0.16183895643030066, 0.14981998397343163, -0.2592583589128441, 0.7469982504844666, 0.17824333906173706, 0.5192912817001343, -0.1593283861875534, -0.14926013350486755, -0.9758769869804382, -0.0917854756116867, -0.38182204961776733, 0.6181041598320007, 0.06354973838122256, -0.08957085846687592, 0.9848114636478634,-0.13448075683121793,-0.2511138916015625,-0.5310821533203125,-0.3577728271484375
20230215-1545,2023-02-15 15:45:21Z,u02, 86,100,movements,el-ex, lt, nd,281885.7650462917, -0.1605994646798656, 0.15690659405802482, -0.2518304532736275, 0.8743612766265869, 0.30258554220199585, 0.6865488290786743, -0.15794555842876434, -0.1562635600566864, -0.9750050902366638, -0.06155210733413696, -0.471940815448761, 0.7919606566429138, 0.06745939322281401, -0.08914421959195024, 0.985055146071328,-0.13102986198740862,-0.2194976806640625,-0.628204345703125,-0.18304443359375
20230215-1545,2023-02-15 15:45:21Z,u02, 87,100,movements,el-ex, lt, nd,281885.7750702917, -0.1577134770133252, 0.16396599194664305, -0.24363826148996867, 0.7453572750091553, 0.5645217895507812, 0.6468852758407593, -0.15495392680168152, -0.16323228180408478, -0.9743431210517883, 0.0008554458618164062, -0.4917207956314087, 0.8158195614814758, 0.07149127412089594, -0.08784895875627857, 0.985397333462811,-0.12713672073551072,-0.1540985107421875,-0.6549530029296875,-0.1585235595703125
20230215-1545,2023-02-15 15:45:21Z,u02, 88,100,movements,el-ex, lt, nd,281885.78509329166, -0.1514058444931069, 0.1680425225842721, -0.23735701410126334, 0.15356002748012543, 0.8504248857498169, 0.4265041649341583, -0.14870348572731018, -0.16725276410579681, -0.9746351838111877, 0.03636831045150757, -0.26008492708206177, 0.55762779712677, 0.07417036163350649, -0.08474167849296078, 0.9858777460459731,-0.12394696871370356,-0.112335205078125,-0.427337646484375,-0.4170074462890625
20230215-1545,2023-02-15 15:45:21Z,u02, 89,100,movements,el-ex, lt, nd,281885.7951172917, -0.14493323498343444, 0.16530238366158484, -0.23537510424708766, -0.579298198223114, 0.3905750513076782, 0.023100245743989944, -0.14245763421058655, -0.16455060243606567, -0.9760271310806274, 0.024858176708221436, 0.1731565147638321, -0.16557443141937256, 0.07329860114051395, -0.08132502066796547, 0.9863934343094214,-0.12264418925947566,-0.1175994873046875,0.00860595703125,-1.1416015625
20230215-1545,2023-02-15 15:45:21Z,u02, 90,100,movements,el-ex, lt, nd,281885.8051402917, -0.14553107222524897, 0.15930332482212808, -0.23740808076792072, -0.5813389420509338, -0.5968220233917236, -0.2035657912492752, -0.1431816965341568, -0.1586303859949112, -0.9769009351730347, 0.04325191676616669, 0.6650238037109375, -1.1313906908035278, 0.07021607965452102, -0.08135873845075364, 0.9865103781464148,-0.12348156487131008,-0.0999298095703125,0.5063934326171875,-2.1082916259765625
20230215-1545,2023-02-15 15:45:21Z,u02, 91,100,movements,el-ex, lt, nd,281885.8151632917, -0.15553880080641028, 0.1543034583582326, -0.24014251327702835, -0.5589119791984558, -1.4014077186584473, -0.1637086570262909, -0.15307188034057617, -0.1536918729543686, -0.976190447807312, 0.00654175877571106, 0.895268976688385, -1.3634244203567505, 0.06701061975840247, -0.08610661692942856, 0.9861376444932126,-0.12501060918017443,-0.1465301513671875,0.7415771484375,-2.3396148681640625
20230215-1545,2023-02-15 15:45:21Z,u02, 92,100,movements,el-ex, lt, nd,281885.82518729166, -0.170296686567236, 0.1483809424226969, -0.2416949144078798, -0.5096965432167053, -1.4797693490982056, 0.09952040016651154, -0.16761252284049988, -0.1478370577096939, -0.9747052192687988, -0.23958350718021393, 1.0563758611679077, -1.1357684135437012, 0.0630909279604225, -0.09309633912787366, 0.985629528394366,-0.1260441445879199,-0.407196044921875,0.908538818359375,-2.1104736328125
20230215-1545,2023-02-15 15:45:21Z,u02, 93,100,movements,el-ex, lt, nd,281885.83521029167, -0.18080518678164925, 0.14805556193764743, -0.23896935513420065, 0.5988959074020386, -0.4448423385620117, 0.37821462750434875, -0.17785440385341644, -0.14751525223255157, -0.9729373455047607, -0.45663654804229736, 0.8295677900314331, -0.30631375312805176, 0.06240109993817049, -0.09817042201915724, 0.9853117773825079,-0.12501815302027983,-0.634490966796875,0.6820526123046875,-1.2792510986328125
20230215-1545,2023-02-15 15:45:21Z,u02, 94,100,movements,el-ex, lt, nd,281885.8452332917, -0.1817374078839199, 0.1572031719843637, -0.23481957203884893, 1.2065949440002441, 0.25589925050735474, 0.04017177224159241, -0.17850995063781738, -0.15655648708343506, -0.9714032411575317, -0.43438979983329773, 0.09307986497879028, 0.43197453022003174, 0.06706144792185272, -0.09900070488167674, 0.9851298111052553,-0.12337295557136678,-0.6128997802734375,-0.0634765625,-0.5394287109375
20230215-1545,2023-02-15 15:45:21Z,u02, 95,100,movements,el-ex, lt, nd,281885.8552572917, -0.17933071844342682, 0.16865730738082668, -0.2344815205256608, 0.9992982745170593, 0.17197266221046448, -0.34420520067214966, -0.17584016919136047, -0.16785885393619537, -0.9700018763542175, -0.16980189085006714, -0.3200409710407257, 0.20007389783859253, 0.07287737995919889, -0.0984273761977221, 0.984748317814779,-0.12357895672023807,-0.34564208984375,-0.4878997802734375,-0.769927978515625
20230215-1545,2023-02-15 15:45:21Z,u02, 96,100,movements,el-ex, lt, nd,281885.8652802917, -0.17933455644049692, 0.17729841958203896, -0.23669189910073976, 0.6336032748222351, -0.26366695761680603, -0.3438679575920105, -0.17557859420776367, -0.1763709932565689, -0.9685378074645996, 0.21859315037727356, -0.4091087877750397, -0.02935647964477539, 0.07702938559464205, -0.09898274294999342, 0.9841963066607977,-0.12500621889699828,0.0430145263671875,-0.585479736328125,-0.997894287109375
20230215-1545,2023-02-15 15:45:21Z,u02, 97,100,movements,el-ex, lt, nd,281885.87530329166, -0.18356171038628283, 0.18288126912293218, -0.23833312849618485, 0.4242977499961853, -0.61045902967453, -0.18085560202598572, -0.1794886440038681, -0.18186354637145996, -0.9668037295341492, 0.4506831467151642, -0.3316405117511749, -0.24973368644714355, 0.07943355993355292, -0.1014319357619188, 0.9836033673612461,-0.1261994586589506,0.2711944580078125,-0.5135040283203125,-1.2165374755859375
20230215-1545,2023-02-15 15:45:21Z,u02, 98,100,movements,el-ex, lt, nd,281885.8853272917, -0.1899449437887236, 0.18703396478610496, -0.23923356614811742, 0.3731659948825836, -0.6548475623130798, -0.16926315426826477, -0.18551209568977356, -0.18594540655612946, -0.9648883938789368, 0.44807010889053345, -0.09803596138954163, -0.35247915983200073, 0.08102890487947385, -0.10483381010495467, 0.983004762272747,-0.12706688134611252,0.2625579833984375,-0.2839813232421875,-1.3173675537109375
20230215-1545,2023-02-15 15:45:21Z,u02, 99,100,movements,el-ex, lt, nd,281885.8953502917, -0.19521831367566175, 0.19148945444089427, -0.24067931420660543, 0.47657066583633423, -0.4320487678050995, -0.29413241147994995, -0.19043509662151337, -0.19032134115695953, -0.9630743861198425, 0.26292961835861206, 0.19405968487262726, -0.30349665880203247, 0.08280963397923517, -0.10772823250872311, 0.9823987117350039,-0.12817986237844722,0.0724945068359375,0.0037384033203125,-1.266571044921875
20230215-1545,2023-02-15 15:45:21Z,u02, 100,100,movements,el-ex, lt, nd,281885.9053732917, -0.19780880088947056, 0.19860379925735774, -0.24301436693544504, 0.848048985004425, -0.18726246058940887, -0.4245908558368683, -0.19265832006931305, -0.1973007619380951, -0.9612258672714233, 0.09890834987163544, 0.3604019284248352, -0.23370510339736938, 0.08601735927557601, -0.1094900638043462, 0.9817234306585586,-0.1297389591330285,-0.09375,0.1631011962890625,-1.1949310302734375
20230215-1545,2023-02-15 15:45:21Z,u02, 101,100,movements,el-ex, lt, nd,281885.9153972917, -0.19878438145434188, 0.2096320443273966, -0.2455358575243746, 1.1779983043670654, -0.13064153492450714, -0.4838278293609619, -0.19315452873706818, -0.20810002088546753, -0.9588460326194763, 0.08159755170345306, 0.32601988315582275, -0.16447550058364868, 0.09123944898463256, -0.11069031134919552, 0.9808840044847758,-0.13149019634354653,-0.1115570068359375,0.117919921875,-1.123321533203125
20230215-1545,2023-02-15 15:45:21Z,u02, 102,100,movements,el-ex, lt, nd,281885.92542029166, -0.19963132446465165, 0.2223139836623447, -0.24812654401132334, 1.1694895029067993, -0.15387548506259918, -0.5131956338882446, -0.19342760741710663, -0.22048725187778473, -0.9560183882713318, 0.16506154835224152, 0.23608168959617615, -0.08667570352554321, 0.09727262104062563, -0.11193232617514377, 0.979913363700029,-0.13333844664260577,-0.0283660888671875,0.015594482421875,-1.042694091796875
20230215-1545,2023-02-15 15:45:21Z,u02, 103,100,movements,el-ex, lt, nd,281885.9354442917, -0.2003340409952099, 0.23424411219330032, -0.2514299757371836, 1.0571666955947876, -0.1447102129459381, -0.5956928730010986, -0.1935621201992035, -0.23210780322551727, -0.9532364010810852, 0.23167859017848969, 0.1257234811782837, 0.01027381420135498, 0.10289870469479978, -0.1131089881410436, 0.9789073996312804,-0.13549409714458122,0.038116455078125,-0.10638427734375,-0.942962646484375
20230215-1545,2023-02-15 15:45:21Z,u02, 104,100,movements,el-ex, lt, nd,281885.9454672917, -0.20056057095458926, 0.24572154769411092, -0.25571010542932954, 1.0333305597305298, -0.12257881462574005, -0.6633373498916626, -0.19323457777500153, -0.24325625598430634, -0.9505192041397095, 0.2273227423429489, -0.013335570693016052, -0.05228835344314575, 0.10827214883441953, -0.11409439165082563, 0.9778516584757763,-0.13807892251154702,0.034088134765625,-0.256591796875,-1.0028076171875
20230215-1545,2023-02-15 15:45:21Z,u02, 105,100,movements,el-ex, lt, nd,281885.9554902917, -0.20050331322565676, 0.25627468871758724, -0.2605452200206806, 0.8493903279304504, -0.1248539537191391, -0.6597210168838501, -0.19265812635421753, -0.25347867608070374, -0.947961688041687, 0.1650702804327011, -0.15353429317474365, -0.1438656449317932, 0.1131732570502731, -0.11493893283186667, 0.9767985855136924,-0.14087358065040906,-0.027587890625,-0.407012939453125,-1.091827392578125
20230215-1545,2023-02-15 15:45:21Z,u02, 106,100,movements,el-ex, lt, nd,281885.96551429166, -0.1999897208180657, 0.26466858996073905, -0.2657531224571396, 0.5781438946723938, -0.04102403298020363, -0.6631247997283936, -0.19174179434776306, -0.2615894079208374, -0.9459418654441833, 0.09529100358486176, -0.18323484063148499, -0.17757797241210938, 0.11702173212347285, -0.11547713973496104, 0.9758653894464724,-0.1437275642612976,-0.0964508056640625,-0.44482421875,-1.1235198974609375
20230215-1545,2023-02-15 15:45:21Z,u02, 107,100,movements,el-ex, lt, nd,281885.97553729167, -0.19713662546529742, 0.2687615704718203, -0.2723276636569411, -0.019021784886717796, 0.20001894235610962, -0.7347038984298706, -0.18883086740970612, -0.26553767919540405, -0.9454272389411926, 0.0328250378370285, -0.16796457767486572, 0.022239983081817627, 0.11885440806673903, -0.11471710016337625, 0.9752566141257415,-0.14692916267618839,-0.156005859375,-0.433502197265625,-0.923187255859375
20230215-1545,2023-02-15 15:45:21Z,u02, 108,100,movements,el-ex, lt, nd,281885.9855602917, -0.19195400080855415, 0.26846975307840487, -0.28082096480609187, -0.1330607682466507, 0.2896377742290497, -0.8447219133377075, -0.18394333124160767, -0.2652563154697418, -0.9464691877365112, 0.007689088582992554, -0.08833563327789307, 0.10500800609588623, 0.11861446851407291, -0.11267656754132764, 0.9749403766107609,-0.15075116793449056,-0.1762542724609375,-0.3535919189453125,-0.841461181640625
20230215-1545,2023-02-15 15:45:21Z,u02, 109,100,movements,el-ex, lt, nd,281885.9955842917, -0.1874050838249398, 0.2741137658805041, -0.28890387440277776, 1.0062432289123535, 0.12858684360980988, -0.8626460433006287, -0.1793542504310608, -0.27069389820098877, -0.9458101987838745, 0.009523957967758179, 0.027194082736968994, -0.2677823305130005, 0.12126961375801565, -0.11130406284331973, 0.974164402710963,-0.1546251493241811,-0.169830322265625,-0.243499755859375,-1.213592529296875
20230215-1545,2023-02-15 15:45:21Z,u02, 110,100,movements,el-ex, lt, nd,281886.0056072917, -0.18476968542837233, 0.28928098735568947, -0.29491380525005884, 1.6669131517410278, 0.025378692895174026, -0.8290488123893738, -0.17608642578125, -0.28526315093040466, -0.9421350955963135, -0.009841889142990112, 0.010162413120269775, -0.3305089473724365, 0.12855187593165435, -0.1113861627016351, 0.9726912692320465,-0.15792171221347037,-0.1859283447265625,-0.2751007080078125,-1.27264404296875
20230215-1545,2023-02-15 15:45:21Z,u02, 111,100,movements,el-ex, lt, nd,281886.01563029166, -0.18191462762245336, 0.30633293790954635, -0.30056120226580085, 1.430871605873108, 0.21186362206935883, -0.8315085172653198, -0.1724906861782074, -0.3015643358230591, -0.9377131462097168, -0.06380689144134521, 0.0671129822731018, 0.025985240936279297, 0.13678537574311062, -0.11150421472974106, 0.9710399702671749,-0.1610530710642974,-0.236297607421875,-0.2344512939453125,-0.9117279052734375
20230215-1545,2023-02-15 15:45:21Z,u02, 112,100,movements,el-ex, lt, nd,281886.0256542917, -0.1770391917588422, 0.32121387931082784, -0.30608464997853413, 1.3872356414794922, 0.3703762888908386, -0.7193393111228943, -0.16710799932479858, -0.3157185912132263, -0.9340217709541321, -0.12393809854984283, 0.06877031922340393, 0.35298240184783936, 0.1441260593921249, -0.1105295865263375, 0.9696177467853196,-0.16386660362921496,-0.291046142578125,-0.2469482421875,-0.5810394287109375
20230215-1545,2023-02-15 15:45:21Z,u02, 113,100,movements,el-ex, lt, nd,281886.0356772917, -0.17111261162701163, 0.33754452446438055, -0.31017479685873794, 1.8079943656921387, 0.4467568099498749, -0.5918061137199402, -0.16067010164260864, -0.3311711847782135, -0.929790735244751, -0.17018619179725647, -0.15256300568580627, 0.23542428016662598, 0.15233724719278963, -0.10907798818371449, 0.9681806808873671,-0.16589606790866698,-0.3308563232421875,-0.483734130859375,-0.694366455078125
20230215-1545,2023-02-15 15:45:21Z,u02, 114,100,movements,el-ex, lt, nd,281886.0457012917, -0.16627366843015903, 0.35763690910877327, -0.31223228888473753, 1.9017634391784668, 0.35729217529296875, -0.45282283425331116, -0.15503628551959991, -0.35006165504455566, -0.923807680606842, -0.2051016241312027, -0.2905176281929016, 0.21761566400527954, 0.16239144753395987, -0.10828291736960467, 0.9664330253391645,-0.16706571779784166,-0.360137939453125,-0.6405792236328125,-0.7061920166015625
20230215-1545,2023-02-15 15:45:21Z,u02, 115,100,movements,el-ex, lt, nd,281886.05572429165, -0.16224851095508475, 0.37067688559718, -0.3145720719554884, 0.49065133929252625, 0.266187846660614, -0.42626285552978516, -0.15056633949279785, -0.36224642395973206, -0.919840931892395, -0.31795474886894226, -0.21539035439491272, 0.287882924079895, 0.16893003986378025, -0.10743458015125533, 0.9652096908353003,-0.16819819501852776,-0.4685211181640625,-0.57763671875,-0.6319580078125
20230215-1545,2023-02-15 15:45:21Z,u02, 116,100,movements,el-ex, lt, nd,281886.06574729166, -0.15693662254504984, 0.36876059899539526, -0.319665569993306, -0.9084579348564148, 0.4605192244052887, -0.41220539808273315, -0.1457863748073578, -0.3604596257209778, -0.9213116765022278, -0.4496725797653198, 0.008988618850708008, 0.13833743333816528, 0.1681793949913331, -0.10516588180184175, 0.9652463286811498,-0.17016231551069078,-0.595458984375,-0.351470947265625,-0.7829742431640625
20230215-1545,2023-02-15 15:45:21Z,u02, 117,100,movements,el-ex, lt, nd,281886.0757712917, -0.1489668784088467, 0.3580313803980133, -0.32465717256365145, -1.2258739471435547, 0.7530378699302673, -0.1677037924528122, -0.13900521397590637, -0.3504311144351959, -0.9262157082557678, -0.47007983922958374, 0.041043877601623535, 0.2590862512588501, 0.16339857755532447, -0.1009605943706875, 0.9662492244559934,-0.1716691029599083,-0.6090850830078125,-0.30938720703125,-0.6671295166015625
20230215-1545,2023-02-15 15:45:21Z,u02, 118,100,movements,el-ex, lt, nd,281886.0857942917, -0.1400506737040869, 0.34635383446678125, -0.32723004584754684, -1.1648274660110474, 0.8034531474113464, -0.0031595875043421984, -0.1313037872314453, -0.33947041630744934, -0.93140709400177, -0.3297099769115448, 0.020775318145751953, 0.19637596607208252, 0.15836833118961766, -0.0959996213270282, 0.9675413645254111,-0.17195174489924367,-0.4610137939453125,-0.318695068359375,-0.7350311279296875
20230215-1545,2023-02-15 15:45:21Z,u02, 119,100,movements,el-ex, lt, nd,281886.0958172917, -0.13241027923950854, 0.33454998801105157, -0.32913774648505, -1.2204840183258057, 0.5789294838905334, -0.04541676491498947, -0.12470407038927078, -0.3283441364765167, -0.9362900257110596, -0.08862902224063873, 0.040563344955444336, 0.12768101692199707, 0.15319965969468805, -0.0915687954814097, 0.9687843466657123,-0.17205247714389774,-0.2133331298828125,-0.28778076171875,-0.8086090087890625
20230215-1545,2023-02-15 15:45:21Z,u02, 120,100,movements,el-ex, lt, nd,281886.10584129166, -0.12710883839911644, 0.3238735929696601, -0.3312391464451744, -0.8595908284187317, 0.34675005078315735, -0.06197981536388397, -0.12017620354890823, -0.318241149187088, -0.9403617978096008, 0.10535995662212372, 0.07660293579101562, 0.07412034273147583, 0.14836893898131662, -0.08835027114089383, 0.9697589292885076,-0.17247788754873045,-0.0148162841796875,-0.24163818359375,-0.866241455078125
20230215-1545,2023-02-15 15:45:21Z,u02, 121,100,movements,el-ex, lt, nd,281886.11586429167, -0.12412068692925222, 0.3196208774968298, -0.33206361231903964, 0.026032205671072006, 0.20999407768249512, 0.018356304615736008, -0.11753222346305847, -0.31420665979385376, -0.9420511722564697, 0.19832754135131836, 0.07920601963996887, 0.05827736854553223, 0.14652109266039776, -0.08663716252280895, 0.9701755020071301,-0.17258363147143044,0.0807952880859375,-0.2350006103515625,-0.8837738037109375
20230215-1545,2023-02-15 15:45:21Z,u02, 122,100,movements,el-ex, lt, nd,281886.1258872917, -0.12278802570570835, 0.3224393835746212, -0.3311834786706057, 0.4352481961250305, 0.11631792038679123, 0.0615680105984211, -0.11616775393486023, -0.3168811798095703, -0.9413242936134338, 0.18977618217468262, 0.10148805379867554, 0.11240583658218384, 0.14804568812536753, -0.08614139727238121, 0.9700730013937316,-0.1721061102517704,0.0736083984375,-0.21539306640625,-0.82891845703125
20230215-1545,2023-02-15 15:45:21Z,u02, 123,100,movements,el-ex, lt, nd,281886.1359112917, -0.12213549737515851, 0.325779963364959, -0.33022238661442743, 0.22984632849693298, 0.08370804786682129, 0.03522668406367302, -0.11542387306690216, -0.3200478255748749, -0.9403439164161682, 0.11809419095516205, 0.2017158567905426, 0.09316074848175049, 0.14976871723107896, -0.0860079193103675, 0.9699017566243376,-0.17164662210171175,0.0026702880859375,-0.1183319091796875,-0.8471832275390625
20230215-1545,2023-02-15 15:45:21Z,u02, 124,100,movements,el-ex, lt, nd,281886.1459342917, -0.12122125907851394, 0.3268482496210627, -0.32965013648357366, -0.010931652039289474, 0.14751392602920532, 0.05511583760380745, -0.11452271789312363, -0.3210597336292267, -0.940109133720398, 0.020467586815357208, 0.22560074925422668, 0.044998109340667725, 0.15039145373835874, -0.08560280531585693, 0.9698993626260705,-0.17131789205732567,-0.09405517578125,-0.095458984375,-0.895111083984375
20230215-1545,2023-02-15 15:45:21Z,u02, 125,100,movements,el-ex, lt, nd,281886.15595729166, -0.11945788263332176, 0.3246348434401521, -0.3291725179216487, -0.4625885784626007, 0.23080667853355408, 0.08397678285837173, -0.1129491925239563, -0.3189627230167389, -0.9410129189491272, -0.039135128259658813, 0.1222463846206665, -0.013531148433685303, 0.14948553880056467, -0.08454362206606146, 0.970202764452224,-0.1709186158054059,-0.1520843505859375,-0.19671630859375,-0.9545440673828125
20230215-1545,2023-02-15 15:45:21Z,u02, 126,100,movements,el-ex, lt, nd,281886.1659812917, -0.11658146127952154, 0.3155073056683561, -0.3293020945437346, -1.403777837753296, 0.3213546872138977, 0.12270976603031158, -0.11057601869106293, -0.31029877066612244, -0.9441862106323242, -0.03729686886072159, 0.05622464418411255, 0.012820303440093994, 0.14528191034142116, -0.08246245670410995, 0.9710714558830955,-0.1706263946021275,-0.1478729248046875,-0.2540740966796875,-0.931365966796875
20230215-1545,2023-02-15 15:45:21Z,u02, 127,100,movements,el-ex, lt, nd,281886.1760042917, -0.11360290002457844, 0.297339510757565, -0.3294922759449003, -2.0880467891693115, 0.23688986897468567, 0.2520432472229004, -0.10838445276021957, -0.292977511882782, -0.9499562978744507, 0.01570260524749756, 0.008889347314834595, 0.02655547857284546, 0.13667362104840555, -0.07963769108788496, 0.9726259608822229,-0.17022641517372955,-0.092681884765625,-0.284088134765625,-0.92340087890625
20230215-1545,2023-02-15 15:45:21Z,u02, 128,100,movements,el-ex, lt, nd,281886.1860282917, -0.1122358488943251, 0.27717251314839325, -0.32898350397869236, -1.8206948041915894, 0.06328905373811722, 0.27405503392219543, -0.10772564262151718, -0.27363717555999756, -0.9557812809944153, 0.07382065057754517, -0.12760797142982483, -0.12295401096343994, 0.1269673499801271, -0.07738631636836438, 0.9742366425283172,-0.16956929598976223,-0.033905029296875,-0.4012451171875,-1.0787353515625
20230215-1545,2023-02-15 15:45:21Z,u02, 129,100,movements,el-ex, lt, nd,281886.19605129166, -0.11214634324913589, 0.2606776446163576, -0.32805014845753283, -1.4127135276794434, 0.03293567895889282, 0.28297024965286255, -0.1081305518746376, -0.25773537158966064, -0.9601459503173828, 0.06926645338535309, -0.22659388184547424, 0.04666334390640259, 0.11895031346707989, -0.07601212253708532, 0.9754829141461034,-0.16883731230238838,-0.0388641357421875,-0.4843292236328125,-0.913482666015625
20230215-1545,2023-02-15 15:45:21Z,u02, 130,100,movements,el-ex, lt, nd,281886.20607429167, -0.11163861904987703, 0.24805624711489016, -0.3265805625592126, -1.107569932937622, 0.14717090129852295, 0.2759518027305603, -0.107996866106987, -0.24552015960216522, -0.9633569121360779, 0.022669754922389984, -0.12447500228881836, 0.3702325224876404, 0.11287471577114983, -0.07470505322698377, 0.9764713651468406,-0.16787559927351828,-0.0853271484375,-0.3699951171875,-0.5931243896484375
20230215-1545,2023-02-15 15:45:21Z,u02, 131,100,movements,el-ex, lt, nd,281886.2160982917, -0.10980746702183679, 0.23696510563012532, -0.3251660983279908, -1.066781759262085, 0.2757968008518219, 0.24059432744979858, -0.1065245121717453, -0.23475362360477448, -0.9662004113197327, -0.04288950562477112, 0.08121965825557709, 0.36131155490875244, 0.10765052007803996, -0.07287764125202942, 0.9773676184295726,-0.16689181230021816,-0.1494140625,-0.153533935546875,-0.604888916015625
20230215-1545,2023-02-15 15:45:21Z,u02, 132,100,movements,el-ex, lt, nd,281886.2261212917, -0.1069253660217817, 0.2258638927058683, -0.3242083347646937, -1.1918156147003174, 0.35112670063972473, 0.17787770926952362, -0.10401111096143723, -0.2239483892917633, -0.9690349698066711, -0.07961311936378479, 0.14722716808319092, 0.31487542390823364, 0.10248617259114914, -0.07056267909842796, 0.978230337923353,-0.1660809233673361,-0.183624267578125,-0.07672119140625,-0.6541595458984375
20230215-1545,2023-02-15 15:45:21Z,u02, 133,100,movements,el-ex, lt, nd,281886.2361442917, -0.10137685756084232, 0.2104612305278653, -0.32321895923175176, -1.9563833475112915, 0.7623767852783203, 0.4118500053882599, -0.0989702120423317, -0.2089109718799591, -0.9729137420654297, -0.05341927707195282, 0.07319925725460052, 0.4284801483154297, 0.09542716749641564, -0.06660929952684023, 0.9793930108121007,-0.16506384058227008,-0.1523895263671875,-0.135711669921875,-0.54443359375
20230215-1545,2023-02-15 15:45:21Z,u02, 134,100,movements,el-ex, lt, nd,281886.24616829166, -0.09567130055033717, 0.18780347910311232, -0.31917817943392784, -2.2367544174194336, 0.44739943742752075, 0.7675817012786865, -0.09384576976299286, -0.1867014467716217, -0.977924108505249, 0.05250973999500275, -0.11938990652561188, 0.365527868270874, 0.08490111407044755, -0.06188499421613245, 0.9811062062163103,-0.16245802952763236,-0.0413360595703125,-0.30609130859375,-0.612396240234375
20230215-1545,2023-02-15 15:45:21Z,u02, 135,100,movements,el-ex, lt, nd,281886.2561912917, -0.09593358147069776, 0.16920634510442528, -0.3122608794983729, -1.285896897315979, -0.2664177417755127, 0.9041970372200012, -0.09441854804754257, -0.16840007901191711, -0.9811862707138062, 0.12519556283950806, -0.3234517574310303, -0.8570552468299866, 0.07594925588972945, -0.060320487831688904, 0.9825410334045312,-0.1587649706010778,0.0307769775390625,-0.491851806640625,-1.8382415771484375
20230215-1545,2023-02-15 15:45:21Z,u02, 136,100,movements,el-ex, lt, nd,281886.2662142917, -0.10332484490660136, 0.15868381700621897, -0.30522768319483484, -0.8242385983467102, -0.9408420324325562, 0.6377596855163574, -0.10184524208307266, -0.15801869332790375, -0.9821698665618896, 0.04749346524477005, -0.49090713262557983, -1.1446154117584229, 0.07040731478494781, -0.06291167635116522, 0.9833309759637874,-0.155386974569755,-0.054351806640625,-0.64892578125,-2.1267852783203125
20230215-1545,2023-02-15 15:45:21Z,u02, 137,100,movements,el-ex, lt, nd,281886.2762382917, -0.11191361985130915, 0.14620146137780848, -0.301481617884288, -1.6435002088546753, -0.48085227608680725, 0.4145180284976959, -0.11048870533704758, -0.14568117260932922, -0.9831425547599792, -0.13375869393348694, -0.10804201662540436, -0.37165480852127075, 0.06371815798149993, -0.06609636917342823, 0.9838630022556168,-0.15357350259606736,-0.2442474365234375,-0.25372314453125,-1.35479736328125
20230215-1545,2023-02-15 15:45:21Z,u02, 138,100,movements,el-ex, lt, nd,281886.2862612917, -0.11256305602348103, 0.1271182758497839, -0.2983518035526821, -1.90277099609375, 0.3754703998565674, 0.6875962018966675, -0.1114191859960556, -0.12677620351314545, -0.9856538772583008, -0.3889012336730957, 0.36829227209091187, 0.5879487991333008, 0.0543680337281392, -0.06493981953112703, 0.984803433115404,-0.15162151715605784,-0.5003204345703125,0.24151611328125,-0.397705078125
20230215-1545,2023-02-15 15:45:22Z,u02, 139,100,movements,el-ex, lt, nd,281886.29628429166, -0.10852569999555525, 0.11099295024229282, -0.29138646824603337, -1.0685250759124756, 0.4981800615787506, 0.9951308369636536, -0.10764630138874054, -0.11076519638299942, -0.987999677658081, -0.5148969888687134, 0.32087868452072144, 0.6720054149627686, 0.04693775805795847, -0.061619907873421476, 0.9859914494689128,-0.14771800160709472,-0.6225433349609375,0.210113525390625,-0.3159942626953125
20230215-1545,2023-02-15 15:45:22Z,u02, 140,100,movements,el-ex, lt, nd,281886.3063082917, -0.10557508408140691, 0.10348943260269029, -0.2821212853446614, -0.302325576543808, 0.30364492535591125, 0.9635115265846252, -0.10481526702642441, -0.10330480337142944, -0.9891116619110107, -0.4428226351737976, 0.06001557409763336, 0.11862826347351074, 0.04372837103161221, -0.05943062456497483, 0.9869813145973447,-0.14291143375331655,-0.547637939453125,-0.0432891845703125,-0.8704833984375
20230215-1545,2023-02-15 15:45:22Z,u02, 141,100,movements,el-ex, lt, nd,281886.3163312917, -0.10354971450583494, 0.10061302144059237, -0.27324426517067885, -0.12911279499530792, 0.3116852939128876, 0.8586993217468262, -0.10284202545881271, -0.10044335573911667, -0.98961341381073, -0.2832205891609192, -0.021642260253429413, -0.0045577287673950195, 0.04271042612294661, -0.05804418253217523, 0.987748120614595,-0.13842102488798416,-0.3860626220703125,-0.1220855712890625,-0.994171142578125
20230215-1545,2023-02-15 15:45:22Z,u02, 142,100,movements,el-ex, lt, nd,281886.3263552917, -0.10087113816862883, 0.09867670597122935, -0.2647493017993962, -0.07988804578781128, 0.38330912590026855, 0.8781958818435669, -0.10021030157804489, -0.09851664304733276, -0.9900769591331482, -0.14760765433311462, -0.027658328413963318, 0.1047925353050232, 0.042178708727414214, -0.056413484254930424, 0.9884579553310331,-0.13412472546731302,-0.2478179931640625,-0.1261749267578125,-0.885284423828125
20230215-1545,2023-02-15 15:45:22Z,u02, 143,100,movements,el-ex, lt, nd,281886.33637829166, -0.0983781914234679, 0.09750362630631154, -0.2555083149558399, 0.023048190400004387, 0.27832600474357605, 0.9747096300125122, -0.09775306284427643, -0.09734920412302017, -0.9904380440711975, -0.047388508915901184, -0.09677314758300781, 0.06331402063369751, 0.04201983225357393, -0.054911957973230466, 0.9891686269811353,-0.12947823116232904,-0.1451416015625,-0.194122314453125,-0.9271240234375
20230215-1545,2023-02-15 15:45:22Z,u02, 144,100,movements,el-ex, lt, nd,281886.34640129167, -0.09738563690732115, 0.09721879774102686, -0.24515925839567015, 0.12404933571815491, 0.12391219288110733, 1.0716522932052612, -0.09677264839410782, -0.09706572443246841, -0.9905621409416199, 0.027970798313617706, -0.16999363899230957, -0.07793456315994263, 0.04222407151321637, -0.05418552127654836, 0.9898600743723734,-0.12433100963378026,-0.0688018798828125,-0.267059326171875,-1.0684967041015625
20230215-1545,2023-02-15 15:45:22Z,u02, 145,100,movements,el-ex, lt, nd,281886.3564252917, -0.09782651169121208, 0.09766917551319886, -0.23395926002608491, 0.16721491515636444, 0.02599388360977173, 1.1232819557189941, -0.09720507264137268, -0.09751396626234055, -0.9904757738113403, 0.05107777565717697, -0.17575573921203613, -0.15579497814178467, 0.04272384281180951, -0.054192260868675395, 0.9905166517496911,-0.11880489777745998,-0.0461273193359375,-0.2732696533203125,-1.146270751953125
20230215-1545,2023-02-15 15:45:22Z,u02, 146,100,movements,el-ex, lt, nd,281886.3664482917, -0.09871213040715036, 0.09779216899289717, -0.22259199983398759, 0.07910400629043579, 0.02924986369907856, 1.1164969205856323, -0.09808102995157242, -0.09763637185096741, -0.9903773069381714, 0.013562634587287903, -0.10832680761814117, -0.1652776002883911, 0.04304202634148507, -0.05439412237177833, 0.9911486063685079,-0.11319499864366347,-0.0845184326171875,-0.205963134765625,-1.1556549072265625
20230215-1545,2023-02-15 15:45:22Z,u02, 147,100,movements,el-ex, lt, nd,281886.3764712917, -0.09927455996264384, 0.09731969871166804, -0.21143230257040127, 0.05586499348282814, 0.08232612907886505, 1.0976526737213135, -0.09864259511232376, -0.09716615080833435, -0.9903678297996521, -0.04532404989004135, 0.003843352198600769, -0.1530495285987854, 0.04308017735036616, -0.0544077027543356, 0.991762258755708,-0.10766455580256386,-0.1439666748046875,-0.09332275390625,-1.1434173583984375
20230215-1545,2023-02-15 15:45:22Z,u02, 148,100,movements,el-ex, lt, nd,281886.38649529166, -0.09910887945706043, 0.0969000147016437, -0.2004273617238164, 0.07295267283916473, 0.17204242944717407, 1.0848908424377441, -0.09848253428936005, -0.09674844145774841, -0.990424633026123, -0.051694437861442566, 0.06575779616832733, -0.10904741287231445, 0.04317902970545475, -0.05406718620505351, 0.9923552983454306,-0.10219290638839022,-0.150177001953125,-0.0309906005859375,-1.0994720458984375
20230215-1545,2023-02-15 15:45:22Z,u02, 149,100,movements,el-ex, lt, nd,281886.3965182917, -0.09810462794446076, 0.0967520894648721, -0.189410762580948, 0.13272599875926971, 0.24250781536102295, 1.1017204523086548, -0.09748925268650055, -0.0966012105345726, -0.9905372262001038, 0.004792138934135437, 0.08396688848733902, -0.026308417320251465, 0.043451283934588886, -0.05332315765270734, 0.9929338668863024,-0.09670009192960352,-0.0926971435546875,-0.01263427734375,-1.016845703125
20230215-1545,2023-02-15 15:45:22Z,u02, 150,100,movements,el-ex, lt, nd,281886.40654175, -0.0967057736785919, 0.09727854107452283, -0.1781658977834218, 0.16132144629955292, 0.23389488458633423, 1.0944956541061401, -0.09609861671924591, -0.09712518751621246, -0.9906219244003296, 0.0999285951256752, 0.04320058226585388, 0.01128232479095459, 0.044075740763479566, -0.052405893276827424, 0.9934849523285537,-0.09109678610136716,0.0038299560546875,-0.053924560546875,-0.979339599609375
20230215-1545,2023-02-15 15:45:22Z,u02, 151,100,movements,el-ex, lt, nd,281886.41656575, -0.09583691682861178, 0.09730855980749475, -0.16720180414519287, 0.04030155390501022, 0.15786856412887573, 1.0868425369262695, -0.09523759037256241, -0.09715506434440613, -0.9907020926475525, 0.1828535795211792, 0.0014824047684669495, -0.017446041107177734, 0.04441449921741235, -0.05173288616298526, 0.9939911595400291,-0.08563049146324242,0.087615966796875,-0.095672607421875,-1.008148193359375
20230215-1545,2023-02-15 15:45:22Z,u02, 152,100,movements,el-ex, lt, nd,281886.42658875004, -0.09587951974695755, 0.09607321962519316, -0.15612471109304762, -0.06149465590715408, 0.04911251738667488, 1.1251753568649292, -0.09529121965169907, -0.09592549502849579, -0.9908167719841003, 0.23297128081321716, 0.0005274936556816101, -0.04035693407058716, 0.044084157690151816, -0.05146065103034471, 0.9944811864973135,-0.08009773592137036,0.1376800537109375,-0.09539794921875,-1.0311737060546875
20230215-1545,2023-02-15 15:45:22Z,u02, 153,100,movements,el-ex, lt, nd,281886.43661175, -0.09698067593849241, 0.09424022032372943, -0.14499074343412333, -0.08587483316659927, -0.04794212430715561, 1.1078133583068848, -0.09639906883239746, -0.09410078823566437, -0.9908846020698547, 0.24404312670230865, 0.005630284547805786, -0.09309977293014526, 0.04341675760241431, -0.05169808364029113, 0.9949299793489027,-0.07454357635697136,0.14764404296875,-0.088470458984375,-1.083984375
20230215-1545,2023-02-15 15:45:22Z,u02, 154,100,movements,el-ex, lt, nd,281886.44663575, -0.09834627610814431, 0.09190123322611385, -0.13421334711949648, -0.18655267357826233, -0.007522265892475843, 1.0678354501724243, -0.0977734699845314, -0.0917719230055809, -0.9909683465957642, 0.2179822325706482, 0.02846316248178482, -0.10113370418548584, 0.04248309575034953, -0.05206739051339464, 0.995339922565525,-0.06915731231672097,0.120208740234375,-0.0633087158203125,-1.09210205078125
20230215-1545,2023-02-15 15:45:22Z,u02, 155,100,movements,el-ex, lt, nd,281886.45665875, -0.09903209981061073, 0.08803654164778384, -0.12384331093125577, -0.382598340511322, 0.05652329698204994, 1.061663269996643, -0.09848740696907043, -0.08792286366224289, -0.9912465810775757, 0.19609791040420532, 0.04361129552125931, -0.014490723609924316, 0.04080595193791904, -0.052072829451196574, 0.995759791174224,-0.06392021715961889,0.0976104736328125,-0.0443115234375,-1.0057373046875
20230215-1545,2023-02-15 15:45:22Z,u02, 156,100,movements,el-ex, lt, nd,281886.46668275003, -0.0992499903261133, 0.08220464095947388, -0.11363509852570607, -0.5690150260925293, 0.0598735548555851, 1.0683172941207886, -0.09875252097845078, -0.08211208879947662, -0.9917184710502625, 0.18244700133800507, 0.05502769351005554, 0.03108614683151245, 0.03815941863058041, -0.05181330250078551, 0.9961993162146504,-0.058704175003269424,0.0836944580078125,-0.0270843505859375,-0.96063232421875
20230215-1545,2023-02-15 15:45:22Z,u02, 157,100,movements,el-ex, lt, nd,281886.47670575004, -0.0999296555857166, 0.07482830088860268, -0.10373881515322604, -0.6843722462654114, -0.036553382873535156, 1.0396108627319336, -0.09948424994945526, -0.07475849241018295, -0.9922268390655518, 0.16926270723342896, 0.06448927521705627, -0.008719205856323242, 0.034720902577647296, -0.05177887266570622, 0.9966138991737656,-0.05361087686760887,0.0697784423828125,-0.0102691650390625,-1.000946044921875
20230215-1545,2023-02-15 15:45:22Z,u02, 158,100,movements,el-ex, lt, nd,281886.48672875, -0.10127320261313977, 0.06680943627892964, -0.09415665170338051, -0.7174805402755737, -0.08556753396987915, 1.0169779062271118, -0.1008746325969696, -0.06675975024700165, -0.9926567673683167, 0.1453387588262558, 0.10208379477262497, -0.01237863302230835, 0.03093808230445805, -0.05210043187274844, 0.9969755161795677,-0.04866298968613875,0.044464111328125,0.0353240966796875,-1.005035400390625
20230215-1545,2023-02-15 15:45:22Z,u02, 159,100,movements,el-ex, lt, nd,281886.49675275, -0.10253406038468418, 0.058247010294957456, -0.0848682171617145, -0.8003088235855103, -0.05281943827867508, 1.0020390748977661, -0.10218091309070587, -0.05821407958865166, -0.9930610060691833, 0.07770583778619766, 0.12420829385519028, 0.06348031759262085, 0.02688200622741081, -0.05241039341292702, 0.9973007484957384,-0.04383853859078554,-0.02447509765625,0.0659942626953125,-0.9295806884765625
20230215-1545,2023-02-15 15:45:22Z,u02, 160,100,movements,el-ex, lt, nd,281886.50677575, -0.10338836341156618, 0.049150779891794574, -0.0759550203380846, -0.8029064536094666, -0.016683273017406464, 0.9447835087776184, -0.10307963937520981, -0.049130991101264954, -0.9934589862823486, -0.0221492201089859, 0.11245492100715637, 0.11092114448547363, 0.022561117892699285, -0.05255005953417458, 0.9975945067837545,-0.039175007885297194,-0.1252288818359375,0.063323974609375,-0.882537841796875
20230215-1545,2023-02-15 15:45:22Z,u02, 161,100,movements,el-ex, lt, nd,281886.51679875003, -0.10325607246922267, 0.03985722781844582, -0.06753755116780082, -0.86795973777771, 0.1140957772731781, 0.9249591827392578, -0.10299082845449448, -0.03984667733311653, -0.9938838481903076, -0.12770678102970123, 0.022344794124364853, 0.10614275932312012, 0.018147432940020292, -0.05223733624667756, 0.9978653409737391,-0.034738439441008545,-0.2306976318359375,-0.0175018310546875,-0.8877410888671875
20230215-1545,2023-02-15 15:45:22Z,u02, 162,100,movements,el-ex, lt, nd,281886.52682275, -0.10207915112706947, 0.03022089834292439, -0.059200007851629946, -0.873304009437561, 0.16909831762313843, 0.9302464127540588, -0.10185543447732925, -0.03021629899740219, -0.994340181350708, -0.18116456270217896, -0.06473919004201889, 0.10748416185379028, 0.013573864191232974, -0.05143585241239324, 0.9981235288017465,-0.030324295375961277,-0.28302001953125,-0.0949554443359375,-0.8868560791015625
20230215-1545,2023-02-15 15:45:22Z,u02, 163,100,movements,el-ex, lt, nd,281886.53684575, -0.10064308984788489, 0.020861848132662633, -0.050689972959428745, -0.7991350293159485, 0.1509949415922165, 0.945708692073822, -0.10045140981674194, -0.0208603348582983, -0.9947232604026794, -0.15958884358406067, -0.10615387558937073, 0.05603307485580444, 0.009139530707198851, -0.05054542543517458, 0.998345724683704,-0.02583331816219414,-0.260040283203125,-0.12701416015625,-0.938690185546875
20230215-1545,2023-02-15 15:45:22Z,u02, 164,100,movements,el-ex, lt, nd,281886.54686875, -0.09957309968450022, 0.01281348598903763, -0.041719881733368526, -0.5977420210838318, 0.10385672003030777, 0.9979932904243469, -0.09940048307180405, -0.012813135050237179, -0.9949650168418884, -0.11370375007390976, -0.10570193082094193, -0.023162424564361572, 0.0053593494217929125, -0.04988760132924657, 0.998516536258817,-0.02115091988708439,-0.213104248046875,-0.1185150146484375,-1.01812744140625
20230215-1545,2023-02-15 15:45:22Z,u02, 165,100,movements,el-ex, lt, nd,281886.55689275, -0.09836545397627498, 0.007749490453344389, -0.03193913609461699, -0.18794122338294983, 0.17238785326480865, 1.0501446723937988, -0.09820395708084106, -0.007749412674456835, -0.9951361417770386, -0.09503333270549774, -0.06254787743091583, -0.15743649005889893, 0.0030844854930042304, -0.049218060287891996, 0.9986529463447728,-0.01613992737384984,-0.1932373046875,-0.0702972412109375,-1.1525726318359375
20230215-1545,2023-02-15 15:45:22Z,u02, 166,100,movements,el-ex, lt, nd,281886.56691575004, -0.09621362430305885, 0.006835539331748074, -0.020928135332588915, 0.21790756285190582, 0.27073144912719727, 1.1498322486877441, -0.09606300294399261, -0.006835486274212599, -0.9953517913818359, -0.08394491672515869, -0.031143687665462494, -0.21297645568847656, 0.002910435431472417, -0.04812106795977281, 0.9987808341771746,-0.010616055376123172,-0.1800079345703125,-0.0379791259765625,-1.2083282470703125
20230215-1545,2023-02-15 15:45:22Z,u02, 167,100,movements,el-ex, lt, nd,281886.57693975, -0.09337462068914727, 0.00871185236626143, -0.0089835754480436, 0.32940560579299927, 0.315282940864563, 1.1858253479003906, -0.09323545545339584, -0.008711742237210274, -0.9956059455871582, 0.022831425070762634, -0.0022441158071160316, -0.23193305730819702, 0.004141491398596091, -0.04668898159075842, 0.9988898941533302,-0.004690125405744462,-0.070404052734375,-0.010955810546875,-1.2275390625
20230215-1545,2023-02-15 15:45:22Z,u02, 168,100,movements,el-ex, lt, nd,281886.58696275, -0.09016696944946492, 0.010721263266451666, 0.0034518450107208043, 0.32066041231155396, 0.3455127477645874, 1.2576277256011963, -0.09003966301679611, -0.010721057653427124, -0.9958804845809937, 0.1616797000169754, 0.050622742623090744, -0.17726099491119385, 0.0054329345491135935, -0.045058259459796836, 0.9989684286948032,0.0014825506677196754,0.0716400146484375,0.0399017333984375,-1.1731414794921875
20230215-1545,2023-02-15 15:45:22Z,u02, 169,100,movements,el-ex, lt, nd,281886.59698575, -0.08706372637690014, 0.012817492731151136, 0.016660545205068895, 0.3322824239730835, 0.3067011833190918, 1.3041025400161743, -0.08694663643836975, -0.012817141599953175, -0.9961305260658264, 0.26738181710243225, 0.07185334712266922, -0.13318771123886108, 0.006764915019659493, -0.04346237633713709, 0.9989997945388795,0.00804322858770265,0.1804351806640625,0.0590362548828125,-1.1293182373046875
20230215-1545,2023-02-15 15:45:22Z,u02, 170,100,movements,el-ex, lt, nd,281886.60700975003, -0.08348645878908612, 0.015041586712496705, 0.029811895569627208, 0.341921329498291, 0.45622196793556213, 1.2720975875854492, -0.0833800733089447, -0.015041019767522812, -0.9964042901992798, 0.2732604742050171, 0.04665718227624893, -0.16230237483978271, 0.008135337183321273, -0.04161328923419676, 0.9989943217636053,0.014578176808942836,0.18988037109375,0.0316162109375,-1.1587066650390625
20230215-1545,2023-02-15 15:45:22Z,u02, 171,100,movements,el-ex, lt, nd,281886.61703275004, -0.07843778148802467, 0.0177334238355714, 0.042657849356245364, 0.41443121433258057, 0.5947401523590088, 1.2385423183441162, -0.07834505289793015, -0.017732493579387665, -0.996768593788147, 0.16655611991882324, 0.049119770526885986, -0.11674153804779053, 0.009693947970029712, -0.03900942138153111, 0.9989719554118467,0.020962499077478124,0.0882110595703125,0.0313873291015625,-1.1135101318359375
20230215-1545,2023-02-15 15:45:22Z,u02, 172,100,movements,el-ex, lt, nd,281886.62705575, -0.07226183629504976, 0.021176533531040164, 0.05520866048220557, 0.45963597297668457, 0.6711773872375488, 1.196123480796814, -0.07218277454376221, -0.021174950525164604, -0.997166633605957, 0.0714961439371109, 0.031337253749370575, -0.09342479705810547, 0.011574097689755685, -0.03581522257816309, 0.998921185710525,0.027198936968256864,-0.0006866455078125,0.010162353515625,-1.0905914306640625
20230215-1545,2023-02-15 15:45:22Z,u02, 173,100,movements,el-ex, lt, nd,281886.63707975, -0.06559976754898807, 0.02481204384686287, 0.0672088646523887, 0.42257222533226013, 0.706360936164856, 1.1509069204330444, -0.06553255021572113, -0.024809498339891434, -0.9975419640541077, 0.030712008476257324, 0.0064531248062849045, -0.06645339727401733, 0.013493761902488629, -0.03235638075331327, 0.998834700126635,0.03317084826171038,-0.034820556640625,-0.0183563232421875,-1.063995361328125
20230215-1545,2023-02-15 15:45:22Z,u02, 174,100,movements,el-ex, lt, nd,281886.64710275, -0.05870313742604791, 0.02758373555837285, 0.07882206397876268, 0.2745782434940338, 0.7165629863739014, 1.1231474876403809, -0.05864711105823517, -0.02758023701608181, -0.9978976845741272, 0.002967800945043564, -0.00983436405658722, -0.00048482418060302734, 0.014930984342932135, -0.02877861482690539, 0.9987141314877676,0.03897568294232443,-0.0556793212890625,-0.03741455078125,-0.998382568359375
20230215-1545,2023-02-15 15:45:22Z,u02, 175,100,movements,el-ex, lt, nd,281886.65712575003, -0.05198807907554556, 0.029422963269872118, 0.09009653637849663, 0.2486124187707901, 0.6778818964958191, 1.104970097541809, -0.05194217339158058, -0.029418718069791794, -0.9982166886329651, -0.017531082034111023, -0.018204014748334885, 0.04872328042984009, 0.0158613938172609, -0.02529967946150654, 0.9985571761260515,0.04463098208421448,-0.0694732666015625,-0.0476226806640625,-0.949493408203125
20230215-1545,2023-02-15 15:45:22Z,u02, 176,100,movements,el-ex, lt, nd,281886.66714975, -0.045842392699809865, 0.03162776426507912, 0.1012399563514221, 0.30222025513648987, 0.6126751899719238, 1.0867128372192383, -0.04580342024564743, -0.03162249177694321, -0.9984498023986816, -0.042529694736003876, -0.06035753712058067, 0.035467684268951416, 0.01694834846605969, -0.02208705761368068, 0.9983501868051433,0.05021678716210824,-0.0883331298828125,-0.09197998046875,-0.962982177734375
20230215-1545,2023-02-15 15:45:22Z,u02, 177,100,movements,el-ex, lt, nd,281886.67717275, -0.040220474241514974, 0.03403590395563515, 0.1121191050878529, 0.26633670926094055, 0.5737605690956116, 1.0668925046920776, -0.04018634185194969, -0.03402933105826378, -0.9986125826835632, -0.06615214049816132, -0.0757119283080101, 0.04554861783981323, 0.018113504756884266, -0.01912110534562858, 0.9981017685656803,0.05566909788621535,-0.1063385009765625,-0.1097412109375,-0.95306396484375
20230215-1545,2023-02-15 15:45:22Z,u02, 178,100,movements,el-ex, lt, nd,281886.68719675, -0.03515706510597143, 0.03593660778117543, 0.12287922338833014, 0.19393421709537506, 0.505518913269043, 1.0643413066864014, -0.03512712940573692, -0.0359288714826107, -0.9987367987632751, -0.08369304984807968, -0.046087171882390976, 0.10843223333358765, 0.0190097738146016, -0.016438587627153178, 0.9978172916868449,0.0610663399306971,-0.1188201904296875,-0.0820159912109375,-0.8903045654296875
20230215-1545,2023-02-15 15:45:22Z,u02, 179,100,movements,el-ex, lt, nd,281886.69721975, -0.03087073667104834, 0.03707547305696936, 0.13366951798150226, 0.1033550500869751, 0.4298774302005768, 1.0792115926742554, -0.03084462136030197, -0.0370669811964035, -0.9988366365432739, -0.08713632822036743, -0.034283172339200974, 0.13950741291046143, 0.019523719291931616, -0.014159824779600996, 0.9974962406252338,0.0664801124111144,-0.11798095703125,-0.07135009765625,-0.8593292236328125
20230215-1545,2023-02-15 15:45:22Z,u02, 180,100,movements,el-ex, lt, nd,281886.70724275004, -0.027536081052014643, 0.03743379632534286, 0.14453279166792987, 0.03297143429517746, 0.2990587055683136, 1.0744264125823975, -0.02751331217586994, -0.03742505609989166, -0.9989206194877625, -0.048841655254364014, -0.015080492943525314, 0.13800448179244995, 0.019659082126606307, -0.012378047208488493, 0.997139294006676,0.07192702420665414,-0.07635498046875,-0.0525054931640625,-0.8609161376953125
20230215-1545,2023-02-15 15:45:22Z,u02, 181,100,movements,el-ex, lt, nd,281886.71726675, -0.02593233881687061, 0.03718168192626874, 0.15496241066711902, -0.030177708715200424, 0.09823399037122726, 0.9989664554595947, -0.025911511853337288, -0.03717311471700668, -0.9989728331565857, 0.046480368822813034, -0.009824004024267197, 0.1149548888206482, 0.019535868944440267, -0.011485877060173472, 0.99676235156051,0.07714351936504237,0.02056884765625,-0.0469970703125,-0.8840179443359375
20230215-1545,2023-02-15 15:45:22Z,u02, 182,100,movements,el-ex, lt, nd,281886.72728975, -0.026164902217080687, 0.035906595824823716, 0.16450510828144144, -0.17509663105010986, -0.0760698989033699, 0.9120772480964661, -0.026145054027438164, -0.035898879170417786, -0.999013364315033, 0.12177189439535141, -0.0030568577349185944, 0.08736175298690796, 0.018964756091700508, -0.011560913584370306, 0.9963926104926221,0.08190550660708479,0.0956268310546875,-0.0389556884765625,-0.911651611328125
20230215-1545,2023-02-15 15:45:22Z,u02, 183,100,movements,el-ex, lt, nd,281886.73731275, -0.028271045003951053, 0.03356083380438696, 0.17297187179326318, -0.23070450127124786, -0.292653352022171, 0.7782126665115356, -0.02825136110186577, -0.03355453535914421, -0.999037504196167, 0.14034244418144226, 0.020569249987602234, 0.09065127372741699, 0.01793603163236329, -0.012630989421979252, 0.9960431481578079,0.08612107438626226,0.112091064453125,-0.0129852294921875,-0.90838623046875
20230215-1545,2023-02-15 15:45:22Z,u02, 184,100,movements,el-ex, lt, nd,281886.74733675004, -0.03245728478140817, 0.03091853362905496, 0.17998721610420898, -0.26644277572631836, -0.4962088465690613, 0.6378644704818726, -0.032436076551675797, -0.03091360814869404, -0.9989956021308899, 0.11509294807910919, -0.03645399957895279, 0.07358062267303467, 0.01685233138616302, -0.014771208899574657, 0.9957257691468673,0.08959975927339747,0.0826568603515625,-0.0673675537109375,-0.9254150390625
20230215-1545,2023-02-15 15:45:22Z,u02, 185,100,movements,el-ex, lt, nd,281886.75735975004, -0.0384843118169345, 0.02761751666831845, 0.185620050951157, -0.3417007625102997, -0.6659928560256958, 0.5114353895187378, -0.0384601429104805, -0.027614006772637367, -0.998878538608551, 0.030067816376686096, -0.10840289294719696, 0.08841711282730103, 0.015529367597982529, -0.017876857983664295, 0.9954416860826755,0.09238630479318356,-0.008392333984375,-0.136016845703125,-0.91046142578125
20230215-1545,2023-02-15 15:45:22Z,u02, 186,100,movements,el-ex, lt, nd,281886.76738275, -0.04589295764679532, 0.02398491755071934, 0.1899730915324687, -0.33647421002388, -0.7975924611091614, 0.3878472149372101, -0.04586365446448326, -0.023982618004083633, -0.9986597895622253, -0.07503172010183334, -0.11999936401844025, 0.13138073682785034, 0.014110952934806444, -0.021702309449002054, 0.9951846331459335,0.0945380741918427,-0.1208953857421875,-0.14398193359375,-0.867279052734375
20230215-1545,2023-02-15 15:45:22Z,u02, 187,100,movements,el-ex, lt, nd,281886.77740675, -0.05478449351810332, 0.02076090230047139, 0.1931013957673511, -0.2704818844795227, -0.967690646648407, 0.2650826871395111, -0.05474529415369034, -0.02075941115617752, -0.9982845187187195, -0.13206805288791656, -0.12300895154476166, 0.14038968086242676, 0.012968204771989934, -0.026259502049762126, 0.9949429998920863,0.09607642507622338,-0.1868133544921875,-0.143768310546875,-0.8578948974609375
20230215-1545,2023-02-15 15:45:22Z,u02, 188,100,movements,el-ex, lt, nd,281886.78742975, -0.06510740977867659, 0.01798083164326756, 0.19490481159682677, -0.27180588245391846, -1.0782965421676636, 0.13631197810173035, -0.06505090743303299, -0.017979862168431282, -0.997719943523407, -0.13596835732460022, -0.10915641486644745, 0.11510586738586426, 0.01210962775832112, -0.031517938489858864, 0.9947162405909071,0.09695151918792295,-0.201019287109375,-0.12713623046875,-0.8826141357421875
20230215-1545,2023-02-15 15:45:22Z,u02, 189,100,movements,el-ex, lt, nd,281886.79745275003, -0.07655788566112588, 0.015338156430539604, 0.1955740297965786, -0.23773179948329926, -1.2135469913482666, 0.03389398381114006, -0.07647412270307541, -0.01533755473792553, -0.9969536066055298, -0.1117125153541565, -0.0897650346159935, 0.11197435855865479, 0.01136297343783894, -0.037337463624730456, 0.9944929854695436,0.09726477135764605,-0.1881866455078125,-0.1051025390625,-0.884979248046875
20230215-1545,2023-02-15 15:45:22Z,u02, 190,100,movements,el-ex, lt, nd,281886.80747675, -0.0893882948392362, 0.013267077161015342, 0.1952886052176245, -0.1793115884065628, -1.3436366319656372, -0.05230630934238434, -0.08926144987344742, -0.013266688212752342, -0.9959198832511902, -0.043963029980659485, -0.10894100368022919, 0.06719368696212769, 0.010950948579348205, -0.04381941358968688, 0.994249815384604,0.09709474119567903,-0.1332244873046875,-0.1222076416015625,-0.9287261962890625
20230215-1545,2023-02-15 15:45:22Z,u02, 191,100,movements,el-ex, lt, nd,281886.81749975, -0.10305779634142136, 0.011826478867478592, 0.19428851500054653, -0.12265736609697342, -1.37273108959198, -0.10978610813617706, -0.10286827385425568, -0.01182620320469141, -0.994624674320221, 0.005028918385505676, -0.11021364480257034, 0.016185343265533447, 0.0108730825296414, -0.05068959248850847, 0.9939762808545045,0.09655797773035892,-0.09783935546875,-0.122039794921875,-0.9784393310546875
20230215-1545,2023-02-15 15:45:22Z,u02, 192,100,movements,el-ex, lt, nd,281886.82752375, -0.11664392653840021, 0.011177607640982789, 0.19305085113417383, -0.03440205007791519, -1.3423668146133423, -0.12026231735944748, -0.11637233197689056, -0.011177374981343746, -0.9931427836418152, 0.02839016169309616, -0.06891606003046036, -0.0041564106941223145, 0.011170841789453241, -0.05747896072921522, 0.9936685929898075,0.09588599252334801,-0.087982177734375,-0.0800933837890625,-0.9972991943359375
20230215-1545,2023-02-15 15:45:22Z,u02, 193,100,movements,el-ex, lt, nd,281886.83754675003, -0.12979090688397868, 0.011239488722242353, 0.1918318273508591, 0.008789892308413982, -1.2742503881454468, -0.11537648737430573, -0.12941864132881165, -0.011239252053201199, -0.9915263652801514, 0.07363250851631165, -0.00858196709305048, -0.03711438179016113, 0.011792614643053433, -0.06401375007441251, 0.9933276102238938,0.095203041109039,-0.0557861328125,-0.0198211669921875,-1.0286407470703125
20230215-1545,2023-02-15 15:45:22Z,u02, 194,100,movements,el-ex, lt, nd,281886.84756975004, -0.1421694086568078, 0.011352563162472882, 0.19080483395065287, -0.027455920353531837, -1.2071608304977417, -0.09212969988584518, -0.14168183505535126, -0.01135231927037239, -0.9898471236228943, 0.11604708433151245, 0.05049106106162071, -0.04295921325683594, 0.012401727204515007, -0.07016139325338808, 0.9929611471549853,0.09461433573423493,-0.025634765625,0.0391387939453125,-1.032806396484375
20230215-1545,2023-02-15 15:45:22Z,u02, 195,100,movements,el-ex, lt, nd,281886.85759375, -0.15392632705132173, 0.011067289354629134, 0.1899539875073537, -0.04370652884244919, -1.1349749565124512, -0.06159655749797821, -0.15330982208251953, -0.011067063547670841, -0.9881162047386169, 0.15001393854618073, 0.08791027218103409, -0.07847315073013306, 0.012783801120559119, -0.07601628907179421, 0.9925713304397729,0.09412854613559461,-0.0032958984375,0.07684326171875,-1.06658935546875
20230215-1545,2023-02-15 15:45:22Z,u02, 196,100,movements,el-ex, lt, nd,281886.86761675, -0.1648271985798611, 0.011115647138726967, 0.18960561554660524, 0.0487801656126976, -1.042553186416626, -0.0166932400316, -0.16407173871994019, -0.011115417815744877, -0.9863857626914978, 0.15712898969650269, 0.08167200535535812, -0.0936618447303772, 0.01330645252917739, -0.08142509806228, 0.9921587520161251,0.09388265287803042,-0.0069427490234375,0.070556640625,-1.080047607421875
20230215-1545,2023-02-15 15:45:22Z,u02, 197,100,movements,el-ex, lt, nd,281886.87763975, -0.1748569960501595, 0.012017371956024692, 0.189598478540987, 0.10662642121315002, -0.9659209847450256, -0.0160980224609375, -0.17395475506782532, -0.012017082422971725, -0.9846802949905396, 0.15337064862251282, 0.04758526757359505, -0.09016406536102295, 0.014223880827651702, -0.08635693562430821, 0.9917394384949029,0.09377176452511624,-0.0205841064453125,0.0355682373046875,-1.0748443603515625
20230215-1545,2023-02-15 15:45:22Z,u02, 198,100,movements,el-ex, lt, nd,281886.88766375004, -0.18420190056863645, 0.012710296632738292, 0.18967861361765326, 0.025459378957748413, -0.8913716673851013, 0.012340622954070568, -0.18314719200134277, -0.012709954753518105, -0.9830033183097839, 0.13314415514469147, 0.06613092124462128, -0.08657675981521606, 0.015008933236829895, -0.09095638101716917, 0.9913222174132894,0.09371208131167792,-0.0500030517578125,0.0534210205078125,-1.069580078125
20230215-1545,2023-02-15 15:45:22Z,u02, 200,100,movements,el-ex, lt, nd,281886.90770975, -0.2001498530433077, 0.013020889660137834, 0.19064730105145086, 0.09184093773365021, -0.7030845880508423, 0.058769240975379944, -0.19879934191703796, -0.013020521961152554, -0.9799537062644958, 0.058876246213912964, 0.08037276566028595, -0.07358938455581665, 0.01595738992320179, -0.09883573370562813, 0.9905204949420251,0.09405364387855406,-0.0920562744140625,0.084564208984375,-1.02447509765625
20230215-1545,2023-02-15 15:45:22Z,u02, 200,100,movements,el-ex, lt, nd,281886.89768675005, -0.19262191553474067, 0.012670735785620004, 0.1900264233865248, -0.0018097925931215286, -0.7989115118980408, 0.05238817632198334, -0.1914176046848297, -0.012670396827161312, -0.9814268946647644, 0.0993613451719284, 0.09723455458879471, -0.04304814338684082, 0.015400274006613786, -0.09512824064722998, 0.9909140987659282,0.09382229929209926,-0.139923095703125,0.067352294921875,-1.0535430908203125
20230215-1545,2023-02-15 15:45:22Z,u02, 201,100,movements,el-ex, lt, nd,281886.91773375, -0.20673552475881463, 0.014324983051214749, 0.19163365363532653, 0.19074593484401703, -0.6098933815956116, 0.08211851119995117, -0.2052449733018875, -0.014324492774903774, -0.9786058068275452, 0.03137107193470001, 0.05770517885684967, -0.10453933477401733, 0.016962889155911928, -0.10202627639774577, 0.9901451866553418,0.09442152379611628,-0.1738739013671875,0.0433807373046875,-1.0831451416015625
20230215-1545,2023-02-15 15:45:22Z,u02, 202,100,movements,el-ex, lt, nd,281886.92775675, -0.21264286268102345, 0.016211678130293762, 0.193024309629746, 0.23368215560913086, -0.5714051127433777, 0.10706949979066849, -0.2110162377357483, -0.016210967674851418, -0.9773481488227844, 0.03496032953262329, 0.03885495662689209, -0.08463305234909058, 0.018248229824200747, -0.10484722587271023, 0.9897761802134949,0.09495891874225272,-0.176055908203125,0.02264404296875,-1.061981201171875
20230215-1545,2023-02-15 15:45:22Z,u02, 203,100,movements,el-ex, lt, nd,281886.93778075004, -0.21803498074788805, 0.018335301752375244, 0.1947454770174729, 0.24701154232025146, -0.5003583431243896, 0.13624867796897888, -0.2162751853466034, -0.018334275111556053, -0.9761602878570557, 0.040142983198165894, 0.035530880093574524, -0.08301329612731934, 0.01964707001011234, -0.10739576954426426, 0.9894100048366606,0.09564501898915088,-0.1761322021484375,0.0171966552734375,-1.059173583984375
20230215-1545,2023-02-15 15:45:22Z,u02, 204,100,movements,el-ex, lt, nd,281886.94780375, -0.22279325796607918, 0.020600377413270917, 0.19679055120159444, 0.29525893926620483, -0.45082005858421326, 0.16243448853492737, -0.22090782225131989, -0.020598920062184334, -0.9750771522521973, 0.033102646470069885, 0.043715931475162506, -0.07198095321655273, 0.02110668047683233, -0.10961724690927882, 0.9890548788969601,0.09648303897193071,-0.18780517578125,0.0231170654296875,-1.04705810546875
20230215-1545,2023-02-15 15:45:22Z,u02, 205,100,movements,el-ex, lt, nd,281886.95782675, -0.2272146783952233, 0.023251768335563534, 0.1992429120736016, 0.3094003200531006, -0.4288327395915985, 0.19102086126804352, -0.22520378232002258, -0.0232496727257967, -0.9740342497825623, 0.03269889950752258, 0.04004954919219017, -0.056483328342437744, 0.022767375477422674, -0.1116446322542958, 0.9886917342457692,0.09749756085846113,-0.1925048828125,0.0167999267578125,-1.030517578125
20230215-1545,2023-02-15 15:45:22Z,u02, 206,100,movements,el-ex, lt, nd,281886.96785075, -0.23142255421475894, 0.02539286838225249, 0.20186809147482213, 0.2338058054447174, -0.390577495098114, 0.2244717925786972, -0.22928844392299652, -0.02539013884961605, -0.9730272889137268, 0.030283331871032715, 0.04751533269882202, -0.04789245128631592, 0.024179456511306898, -0.11358563980726591, 0.9883254849658497,0.09862253102920436,-0.199005126953125,0.022125244140625,-1.0209197998046875
20230215-1545,2023-02-15 15:45:22Z,u02, 207,100,movements,el-ex, lt, nd,281886.97787375003, -0.23494589403796237, 0.02694830067147675, 0.20474686364714434, 0.19729173183441162, -0.3079630434513092, 0.26276695728302, -0.23270584642887115, -0.026945039629936218, -0.972173810005188, 0.012628331780433655, 0.05451761931180954, -0.03042018413543701, 0.025287259890113552, -0.11521128642746822, 0.987980155585751,0.09991027587988548,-0.2200775146484375,0.0275726318359375,-1.002593994140625
20230215-1545,2023-02-15 15:45:22Z,u02, 208,100,movements,el-ex, lt, nd,281886.98789675004, -0.23783450402062103, 0.02793026701890928, 0.2078180190494837, 0.147356778383255, -0.26356443762779236, 0.2826927602291107, -0.23550675809383392, -0.02792663499712944, -0.97147136926651, 0.010637998580932617, 0.03990473225712776, -0.019510626792907715, 0.026095365439533457, -0.11654755715216905, 0.9876576578841977,0.10133176464288497,-0.2248687744140625,0.0119781494140625,-0.9909820556640625
20230215-1545,2023-02-15 15:45:22Z,u02, 209,100,movements,el-ex, lt, nd,281886.99792075, -0.24056637471003975, 0.028582407994115665, 0.21090504376426467, 0.11437486857175827, -0.27812498807907104, 0.27857255935668945, -0.23815540969371796, -0.028578516095876694, -0.9708064794540405, 0.022151991724967957, 0.020460790023207664, -0.012286782264709473, 0.02673752366882159, -0.1178212735830057, 0.9873395699354955,0.10278073349290838,-0.21600341796875,-0.00811767578125,-0.98309326171875
20230215-1545,2023-02-15 15:45:22Z,u02, 210,100,movements,el-ex, lt, nd,281887.00794375, -0.24364963825862745, 0.028851767575221808, 0.21361809690729186, 0.0848861038684845, -0.32689839601516724, 0.23637399077415466, -0.24114567041397095, -0.028847765177488327, -0.9700601100921631, 0.022609293460845947, -0.0025701355189085007, -0.016680002212524414, 0.027190690908072884, -0.11929216971103149, 0.9870163087947315,0.10406192579660434,-0.218536376953125,-0.0314178466796875,-0.9867401123046875
20230215-1545,2023-02-15 15:45:22Z,u02, 211,100,movements,el-ex, lt, nd,281887.01796675, -0.24708393437248946, 0.029046936257597383, 0.21590332032104248, 0.03792685270309448, -0.3455285429954529, 0.19205260276794434, -0.24447432160377502, -0.02904285117983818, -0.9692206978797913, -0.001970350742340088, -0.0184272900223732, 0.022580742835998535, 0.027603811735428228, -0.12094488916605774, 0.9866904172673793,0.10513044985293661,-0.2464447021484375,-0.0474700927734375,-0.9466400146484375
20230215-1545,2023-02-15 15:45:22Z,u02, 212,100,movements,el-ex, lt, nd,281887.02799075004, -0.25070307180264845, 0.028432332713244177, 0.21731475482140458, -0.07986468076705933, -0.3861609101295471, 0.11329525709152222, -0.24798484146595, -0.02842850238084793, -0.9683467149734497, -0.03730873763561249, -0.024916278198361397, 0.10003006458282471, 0.027577612676805065, -0.12274413992154881, 0.986395711181821,0.10581513568757872,-0.2852935791015625,-0.0533447265625,-0.868316650390625
20230215-1545,2023-02-15 15:45:22Z,u02, 213,100,movements,el-ex, lt, nd,281887.03801375, -0.25507328595382645, 0.027636516161023736, 0.2180473737789403, -0.00977028626948595, -0.48862311244010925, 0.06952673196792603, -0.2522199749946594, -0.027632998302578926, -0.9672753214836121, -0.08028429746627808, -0.013535266742110252, 0.12254875898361206, 0.027462295055639633, -0.12493267239920419, 0.986086361692375,0.10616674744948329,-0.3325042724609375,-0.041168212890625,-0.8447265625
20230215-1545,2023-02-15 15:45:22Z,u02, 214,100,movements,el-ex, lt, nd,281887.04803775, -0.2603000175402616, 0.027775033325718068, 0.21859028729240998, 0.044973745942115784, -0.5525611042976379, 0.0317855067551136, -0.2572712004184723, -0.027771461755037308, -0.9659401178359985, -0.11505851149559021, -0.05703694000840187, 0.12394487857818604, 0.02784251033923453, -0.12749410218651086, 0.9857276661450299,0.1063531674424447,-0.3723297119140625,-0.084808349609375,-0.8419952392578125
20230215-1545,2023-02-15 15:45:22Z,u02, 215,100,movements,el-ex, lt, nd,281887.05806075, -0.26600513710408163, 0.02814653302890773, 0.21896502872917942, 0.04534206539392471, -0.579075276851654, 0.03124009072780609, -0.2627750635147095, -0.028142817318439484, -0.9644466042518616, -0.17002522945404053, -0.053110286593437195, 0.15541034936904907, 0.028353141710020242, -0.13027969361555797, 0.9853401777683216,0.1064331740760256,-0.43280029296875,-0.0812530517578125,-0.8090362548828125
20230215-1545,2023-02-15 15:45:22Z,u02, 216,100,movements,el-ex, lt, nd,281887.06808375, -0.271838041434674, 0.028241844024535948, 0.21965941067658876, 0.0007628588937222958, -0.5831986665725708, 0.10574337840080261, -0.2683953642845154, -0.028238089755177498, -0.962894856929779, -0.21030336618423462, -0.02780749462544918, 0.20126765966415405, 0.02875657506792662, -0.13313761347849448, 0.9849190498424063,0.10668550591942069,-0.47869873046875,-0.0560455322265625,-0.761627197265625
20230215-1545,2023-02-15 15:45:22Z,u02, 217,100,movements,el-ex, lt, nd,281887.07810775004, -0.277511723510993, 0.027204337614957035, 0.22098727167005355, -0.1320551186800003, -0.547319769859314, 0.2050366848707199, -0.2738620638847351, -0.027200981974601746, -0.9613842368125916, -0.2006252408027649, -0.006414184346795082, 0.20442622900009155, 0.02863887463087514, -0.13596944337169486, 0.9844655873509145,0.1073292283633055,-0.4744873046875,-0.0336151123046875,-0.7569580078125
20230215-1545,2023-02-15 15:45:22Z,u02, 218,100,movements,el-ex, lt, nd,281887.08813075, -0.2829967231554807, 0.02467503854102754, 0.22280103447306274, -0.24396462738513947, -0.5489951372146606, 0.27478232979774475, -0.2791494131088257, -0.024672534316778183, -0.9599306583404541, -0.13709509372711182, 0.026885008439421654, 0.1625826358795166, 0.02781497019719302, -0.13878399575922165, 0.9839876925336134,0.1083217190613784,-0.4162445068359375,0.0022125244140625,-0.7973480224609375
20230215-1545,2023-02-15 15:45:22Z,u02, 219,100,movements,el-ex, lt, nd,281887.09815375, -0.28893969757021487, 0.021532628244950742, 0.2249050035959546, -0.2312573492527008, -0.6400081515312195, 0.29729989171028137, -0.2848699688911438, -0.021530963480472565, -0.9583243131637573, -0.0177575945854187, 0.037064358592033386, 0.08187472820281982, 0.026741162021409408, -0.14185466977831904, 0.9834490082824519,0.10950000537190846,-0.3026275634765625,0.015533447265625,-0.8764495849609375
20230215-1545,2023-02-15 15:45:22Z,u02, 220,100,movements,el-ex, lt, nd,281887.10817775, -0.2961649843925723, 0.01891482342005133, 0.22701354011315242, -0.13893528282642365, -0.7903326749801636, 0.2500126361846924, -0.2918021082878113, -0.018913695588707924, -0.956291675567627, 0.10518714785575867, 0.018669502809643745, -0.02071326971054077, 0.026003895141711128, -0.14552646089533536, 0.9828053423403785,0.1106322463854564,-0.186614990234375,-0.000244140625,-0.9770050048828125
20230215-1545,2023-02-15 15:45:22Z,u02, 221,100,movements,el-ex, lt, nd,281887.11820075003, -0.3045422419351905, 0.0172885975490546, 0.2287727228053188, -0.0794525220990181, -0.8652912974357605, 0.1765434890985489, -0.2998116910457611, -0.017287736758589745, -0.9538417458534241, 0.1736520230770111, -0.0015721768140792847, -0.10395854711532593, 0.025800380724767796, -0.14971127039157758, 0.9820827854159023,0.11150958485732038,-0.12615966796875,-0.01885986328125,-1.05780029296875
20230215-1545,2023-02-15 15:45:22Z,u02, 222,100,movements,el-ex, lt, nd,281887.12822375004, -0.3133214044837172, 0.01605570996911578, 0.2298122064752848, -0.09867680072784424, -0.8785650730133057, 0.10172338783740997, -0.3081803023815155, -0.016055019572377205, -0.9511924982070923, 0.185972660779953, -0.007977627217769623, -0.10270154476165771, 0.025764892247793963, -0.15407766780545779, 0.9813521379708774,0.11200144874951992,-0.1222076416015625,-0.0240325927734375,-1.05389404296875
20230215-1545,2023-02-15 15:45:22Z,u02, 223,100,movements,el-ex, lt, nd,281887.13824775, -0.3219779327379567, 0.01459564818124956, 0.23029874021854632, -0.1484273076057434, -0.8433932065963745, 0.08693991601467133, -0.31640976667404175, -0.014595129527151585, -0.9485103487968445, 0.16223496198654175, -0.00456995889544487, -0.07076150178909302, 0.025572239094720145, -0.1584010493694626, 0.9806408748216804,0.11224431913306383,-0.1541748046875,-0.0191650390625,-1.0192718505859375
20230215-1545,2023-02-15 15:45:22Z,u02, 224,100,movements,el-ex, lt, nd,281887.14827075, -0.3302076400400023, 0.012788459514407713, 0.23056791484581815, -0.15808552503585815, -0.8070839643478394, 0.07653867453336716, -0.3242129385471344, -0.012788111343979836, -0.9458976984024048, 0.1385897696018219, -0.014448877424001694, -0.06316602230072021, 0.025170504650235265, -0.16253493161283472, 0.9799545592839557,0.1124182669037932,-0.1856231689453125,-0.0272369384765625,-1.009063720703125
20230215-1545,2023-02-15 15:45:22Z,u02, 225,100,movements,el-ex, lt, nd,281887.15829475, -0.3382193666768178, 0.011348862082625878, 0.23061707707308046, -0.1210380271077156, -0.7971671223640442, 0.02240380272269249, -0.33178651332855225, -0.011348618194460869, -0.9432862401008606, 0.11396726965904236, -0.03778473287820816, -0.0941740870475769, 0.02491999785994592, -0.16654089625209417, 0.9792832545820719,0.11246143017021352,-0.2178192138671875,-0.04913330078125,-1.0374603271484375
20230215-1545,2023-02-15 15:45:22Z,u02, 226,100,movements,el-ex, lt, nd,281887.16831775004, -0.346259153282462, 0.009979812977044348, 0.23000066545417167, -0.16745410859584808, -0.8207928538322449, -0.04258957877755165, -0.3393644690513611, -0.00997964758425951, -0.9406020045280457, 0.06775805354118347, -0.07076991349458694, -0.09795689582824707, 0.024649582863653645, -0.17056196990332417, 0.9786304362205855,0.11217628632044284,-0.2716064453125,-0.08074951171875,-1.0385589599609375
20230215-1545,2023-02-15 15:45:22Z,u02, 227,100,movements,el-ex, lt, nd,281887.17834075, -0.3541982338053476, 0.00862379033343864, 0.22907208398586631, -0.16536113619804382, -0.7302286028862, -0.022751690819859505, -0.34682559967041016, -0.008623683825135231, -0.9378899931907654, -0.031775474548339844, -0.0539221465587616, -0.08872133493423462, 0.024350715277651876, -0.17453378334158354, 0.9779870652174497,0.11174250896181473,-0.37860107421875,-0.0625457763671875,-1.026611328125
20230215-1545,2023-02-15 15:45:22Z,u02, 228,100,movements,el-ex, lt, nd,281887.18836475, -0.36012254930879856, 0.006080012824315619, 0.22829131786029921, -0.3835937976837158, -0.4464615285396576, 0.0565008670091629, -0.3523824214935303, -0.006079975515604019, -0.9358363747596741, -0.14426061511039734, -0.06858132779598236, 0.07623249292373657, 0.02336926196823634, -0.17758294491587115, 0.9774878998433915,0.11151511835312662,-0.49664306640625,-0.0746612548828125,-0.8596038818359375
20230215-1545,2023-02-15 15:45:22Z,u02, 229,100,movements,el-ex, lt, nd,281887.19838775, -0.3633742649573075, 0.0013810361948999865, 0.22750344473316925, -0.5175909996032715, -0.23231463134288788, 0.12251610308885574, -0.35542985796928406, -0.0013810357777401805, -0.9347019195556641, -0.23102644085884094, -0.043601926416158676, 0.17374616861343384, 0.02118417098911149, -0.17944431945381112, 0.9771977456170977,0.11151429210066068,-0.586456298828125,-0.04498291015625,-0.760955810546875
20230215-1545,2023-02-15 15:45:22Z,u02, 230,100,movements,el-ex, lt, nd,281887.20841075, -0.3653471739205005, -0.003447246245619636, 0.2272394801238412, -0.3787675201892853, -0.17419619858264923, 0.17295391857624054, -0.3572714626789093, 0.0034472395200282335, -0.9339942336082458, -0.2329690158367157, -0.056746240705251694, 0.06370919942855835, 0.018911658427591668, -0.18067991730531752, 0.9769840880772377,0.11179996854772221,-0.590240478515625,-0.0532989501953125,-0.8702850341796875
20230215-1545,2023-02-15 15:45:22Z,u02, 231,100,movements,el-ex, lt, nd,281887.21843475004, -0.366969526195063, -0.007073151037823954, 0.22765679221553417, -0.2950792908668518, -0.15199662744998932, 0.15089628100395203, -0.3587794005870819, 0.007073092274367809, -0.9333955645561218, -0.1401982307434082, -0.12006448209285736, -0.0254819393157959, 0.017269131773165844, -0.18166999934886047, 0.9767715902223975,0.11231652670845081,-0.4989776611328125,-0.1129913330078125,-0.9588775634765625
20230215-1545,2023-02-15 15:45:22Z,u02, 232,100,movements,el-ex, lt, nd,281887.22845775, -0.3685185343440671, -0.010282165535093809, 0.22785474018719995, -0.2739553153514862, -0.15450771152973175, 0.12315621972084045, -0.3602147698402405, 0.010281984694302082, -0.9328127503395081, -0.035994917154312134, -0.09293889254331589, -0.030016839504241943, 0.015806917327385588, -0.18260277601951758, 0.9765793136086013,0.11269106145070404,-0.396209716796875,-0.0826568603515625,-0.96282958984375
20230215-1545,2023-02-15 15:45:22Z,u02, 233,100,movements,el-ex, lt, nd,281887.23848075, -0.36976755678684353, -0.013238494480359526, 0.22819303364636537, -0.2753995358943939, -0.08650922775268555, 0.1563701033592224, -0.36136704683303833, 0.013238107785582542, -0.9323296546936035, 0.02141648530960083, -0.02042504772543907, -0.03863281011581421, 0.014464600592179295, -0.1833737741646264, 0.9764065372798709,0.11311532724894492,-0.3399505615234375,-0.0071868896484375,-0.9709625244140625
20230215-1545,2023-02-15 15:45:22Z,u02, 234,100,movements,el-ex, lt, nd,281887.24850475, -0.37041710706903874, -0.016409807003819932, 0.2288561997682817, -0.23944537341594696, -0.057915396988391876, 0.19492609798908234, -0.36195555329322815, 0.016409071162343025, -0.9320509433746338, 0.05087462067604065, 0.046594418585300446, -0.04321455955505371, 0.013013696034804581, -0.18386185925758802, 0.9762645294607452,0.1137231244629908,-0.3110809326171875,0.0630035400390625,-0.9752655029296875
20230215-1545,2023-02-15 15:45:22Z,u02, 235,100,movements,el-ex, lt, nd,281887.25852775003, -0.3709664359333429, -0.018377227549357923, 0.23034738942983865, -0.020478934049606323, -0.0495634600520134, 0.2222442626953125, -0.3624550998210907, 0.018376193940639496, -0.9318200945854187, 0.0841958224773407, 0.09455405175685883, -0.1039770245552063, 0.012221633344333798, -0.18422974357657343, 0.9760998156873898,0.11462660821204752,-0.27825927734375,0.1129302978515625,-1.035797119140625
20230215-1545,2023-02-15 15:45:22Z,u02, 236,100,movements,el-ex, lt, nd,281887.26855175, -0.3711022382411684, -0.0189238461647611, 0.23255774691908832, 0.05155088007450104, 0.00460710097104311, 0.22308924794197083, -0.3625779151916504, 0.01892271637916565, -0.9317613244056702, 0.12617352604866028, 0.07755855470895767, -0.12233102321624756, 0.012166246919081523, -0.1843131038554843, 0.9759515948409152,0.11575425725111028,-0.2364044189453125,0.0964813232421875,-1.0540924072265625
20230215-1545,2023-02-15 15:45:22Z,u02, 237,100,movements,el-ex, lt, nd,281887.27857475, -0.3711856821109905, -0.019069882739534843, 0.23480107718981422, 0.10303324460983276, -0.038773395121097565, 0.2111460417509079, -0.3626546859741211, 0.019068727269768715, -0.9317284822463989, 0.1573019027709961, 0.09750837087631226, -0.12393558025360107, 0.01230656535475263, -0.18434831885359954, 0.9758112864972128,0.11686165066192566,-0.205352783203125,0.1165771484375,-1.0556640625
20230215-1545,2023-02-15 15:45:22Z,u02, 238,100,movements,el-ex, lt, nd,281887.28859775, -0.371649003786442, -0.01882160011056362, 0.23710881739026649, 0.07522860169410706, -0.06330457329750061, 0.19241702556610107, -0.36308804154396057, 0.018820488825440407, -0.9315647482872009, 0.17816674709320068, 0.061135515570640564, -0.11309772729873657, 0.012667770088759729, -0.18454579754667638, 0.9756369593774947,0.11796198782398178,-0.1849212646484375,0.0799560546875,-1.0446624755859375
20230215-1545,2023-02-15 15:45:23Z,u02, 239,100,movements,el-ex, lt, nd,281887.29862175003, -0.37251131916031843, -0.01920599165116715, 0.23868206966314814, 0.002942160703241825, -0.1280106008052826, 0.12530750036239624, -0.36388853192329407, 0.01920481026172638, -0.9312444925308228, 0.16445615887641907, 0.020071260631084442, -0.09533631801605225, 0.012676565334359595, -0.18497852384902705, 0.9754581752656335,0.11875900127589174,-0.199432373046875,0.039276123046875,-1.026580810546875
20230215-1545,2023-02-15 15:45:23Z,u02, 240,100,movements,el-ex, lt, nd,281887.30864475004, -0.37415526760051415, -0.01890533165184399, 0.23981820920999247, 0.13510748744010925, -0.19789141416549683, 0.06429982930421829, -0.3654210567474365, 0.018904205411672592, -0.9306503534317017, 0.10557913780212402, 0.0020765792578458786, -0.10809171199798584, 0.013026386081563517, -0.18575557991530228, 0.9752428772137095,0.11927497955083388,-0.2598419189453125,0.0209808349609375,-1.0387420654296875
20230215-1545,2023-02-15 15:45:23Z,u02, 241,100,movements,el-ex, lt, nd,281887.31866775, -0.3761370301926463, -0.017461327632804946, 0.24073257809002144, 0.19708563387393951, -0.20378072559833527, -0.004941294901072979, -0.36727431416511536, 0.01746044121682644, -0.9299488067626953, 0.026301413774490356, -0.05115190148353577, -0.05518913269042969, 0.013934185870490974, -0.1866318542741355, 0.975026387533512,0.11957454509691165,-0.340972900390625,-0.03369140625,-0.985137939453125
20230215-1545,2023-02-15 15:45:23Z,u02, 242,100,movements,el-ex, lt, nd,281887.32869175, -0.3778918457349064, -0.015435730652747885, 0.24123941468156593, 0.19190773367881775, -0.14516215026378632, -0.04627608507871628, -0.36891791224479675, 0.015435117296874523, -0.9293338060379028, -0.06871938705444336, -0.026162097230553627, 0.04946625232696533, 0.015074310609262728, -0.18736557799611167, 0.9748629072933783,0.1196214659971144,-0.4376373291015625,-0.0107269287109375,-0.8798675537109375
20230215-1545,2023-02-15 15:45:23Z,u02, 243,100,movements,el-ex, lt, nd,281887.33871475, -0.37925388984828207, -0.013984158118478567, 0.24112538056009736, 0.09173720329999924, -0.15473487973213196, -0.08097893744707108, -0.3701912760734558, 0.013983702287077904, -0.9288502931594849, -0.1474631428718567, 0.00013062544167041779, 0.13958942890167236, 0.015852754351505557, -0.18794557401360698, 0.9747635722952254,0.11942041599203779,-0.5176544189453125,0.0141143798828125,-0.7892608642578125
20230215-1545,2023-02-15 15:45:23Z,u02, 244,100,movements,el-ex, lt, nd,281887.34873775, -0.3808925935230491, -0.012648509754855191, 0.24083373578443126, 0.13815315067768097, -0.16477766633033752, -0.06408717483282089, -0.37171950936317444, 0.012648172676563263, -0.9282588958740234, -0.20346054434776306, 0.007981657981872559, 0.13048362731933594, 0.016574164400345037, -0.18866858340640238, 0.9746461130221215,0.11914029750766329,-0.5751800537109375,0.0206298828125,-0.7977752685546875
20230215-1545,2023-02-15 15:45:23Z,u02, 245,100,movements,el-ex, lt, nd,281887.35876175005, -0.38238577853328254, -0.010988753508006533, 0.24107425000155028, 0.19344356656074524, -0.1397966742515564, -0.012136357836425304, -0.3731124699115753, 0.010988532565534115, -0.9277210235595703, -0.2394058108329773, -0.05150067061185837, 0.1408558487892151, 0.017494831731588976, -0.18929715656974905, 0.9745143204991694,0.1190891117622957,-0.612518310546875,-0.0405120849609375,-0.786865234375
