SessionID,LoggingTime,UID,RecNo,Hertz,Activity,MoveType,Wrist,Side,TimeStamp,DMRoll,DMPitch,DMYaw,DMRotX,DMRotY,DMRotZ,DMGrvX,DMGrvY,DMGrvZ,DMUAccelX,DMUAccelY,DMUAccelZ,DMQuatX,DMQuatY,DMQuatW,DMQuatZ,AccelroX,AceelroY,AceelroZ
20230215-1535,2023-02-15 15:35:00Z,u02, 1,100,movements,el-ex, lt, nd,281370.0263362917, -0.15530715796835834, -0.012454364426354211, -0.0009690871072911098, -0.43837597966194153, -0.017655326053500175, -0.2877005338668823, -0.1546715646982193, 0.012454042211174965, -0.987887442111969, 0.03981867432594299, 0.025891292840242386, -0.034832894802093506, -0.006245963718138088, -0.07757103964962671, 0.9969672433519348,-2.168404344971009e-19,-0.1371307373046875,-0.0471038818359375,-1.0190277099609375
20230215-1535,2023-02-15 15:35:00Z,u02, 2,100,movements,el-ex, lt, nd,281370.0363592917, -0.15524634596800618, -0.016172153335177897, -0.004213861276953189, -0.39372408390045166, 0.021702732890844345, -0.20631912350654602, -0.1546032726764679, 0.016171447932720184, -0.9878442883491516, 0.017716675996780396, 0.08859539777040482, 8.183717727661133e-05, -0.008224999841709577, -0.07752555676892278, 0.9969552949681311,-0.00147348753090268,-0.124481201171875,0.101043701171875,-1.0057220458984375
20230215-1535,2023-02-15 15:35:00Z,u02, 3,100,movements,el-ex, lt, nd,281370.0463822917, -0.15493875954453437, -0.01975259206194225, -0.006374785147527946, -0.3789134621620178, 0.03195803239941597, -0.11310634762048721, -0.15428948402404785, 0.019751308485865593, -0.987828254699707, 0.025612130761146545, 0.024697544053196907, -0.006678581237792969, -0.010093130939785583, -0.07735636594930323, 0.9969494442684695,-0.002413343313399435,-0.131103515625,0.071868896484375,-0.9882965087890625
20230215-1535,2023-02-15 15:35:00Z,u02, 4,100,movements,el-ex, lt, nd,281370.0564042917, -0.1544917163019592, -0.023264584276822965, -0.007754825803065837, -0.3543228805065155, 0.05302656441926956, -0.04178903251886368, -0.15383625030517578, 0.02326248586177826, -0.9878224730491638, 0.035458579659461975, 0.02783919870853424, -0.02482706308364868, -0.011896452529310028, -0.07711829897814929, 0.9969464710947528,-0.0029679533376080493,-0.1190185546875,0.0389556884765625,-1.008270263671875
20230215-1535,2023-02-15 15:35:00Z,u02, 5,100,movements,el-ex, lt, nd,281370.06642729166, -0.15382393165636446, -0.02670561922060504, -0.008346097701506844, -0.34350860118865967, 0.07274860888719559, 0.03991781547665596, -0.1531633883714676, 0.02670244500041008, -0.9878400564193726, 0.036159008741378784, 0.03241010382771492, -0.007475495338439941, -0.01363343546977934, -0.07677308781935334, 0.9969504250673861,-0.003134390039438724,-0.11810302734375,0.0576019287109375,-1.004974365234375
20230215-1535,2023-02-15 15:35:00Z,u02, 6,100,movements,el-ex, lt, nd,281370.0764502917, -0.1531529757745154, -0.03013129113842927, -0.008037277564138435, -0.3183058500289917, 0.05031919479370117, 0.12150085717439651, -0.1524857133626938, 0.03012673184275627, -0.9878463745117188, 0.03787696361541748, 0.03907187283039093, 0.003990232944488525, -0.015328202180750206, -0.07643200599447722, 0.9969528913279108,-0.002853902333153662,-0.115020751953125,0.063873291015625,-0.98712158203125
20230215-1535,2023-02-15 15:35:00Z,u02, 7,100,movements,el-ex, lt, nd,281370.0864722917, -0.15277385739544103, -0.033293223588513055, -0.007309354379050799, -0.2781926393508911, 0.02683570794761181, 0.10530087351799011, -0.15209592878818512, 0.03328707441687584, -0.9878050684928894, 0.03541196882724762, 0.03128812089562416, -0.007418930530548096, -0.01687605036741414, -0.07624092262268889, 0.9969437934906537,-0.002373226779960617,-0.1157073974609375,0.065216064453125,-0.9881591796875
20230215-1535,2023-02-15 15:35:00Z,u02, 8,100,movements,el-ex, lt, nd,281370.0964952917, -0.15244324596661263, -0.03560321287419741, -0.006805600215774234, -0.15178702771663666, 0.032159898430109024, 0.07190856337547302, -0.15175725519657135, 0.035595692694187164, -0.9877766370773315, 0.017891913652420044, 0.07553406804800034, -0.016770482063293457, -0.018007953582171485, -0.07607493499394158, 0.9969374311415414,-0.002036901662970277,-0.1224822998046875,0.0804443359375,-1.0017852783203125
20230215-1535,2023-02-15 15:35:00Z,u02, 9,100,movements,el-ex, lt, nd,281370.1065182917, -0.15208081181266628, -0.036628563768707614, -0.00618591317961981, -0.038009531795978546, 0.03570403531193733, 0.0825691893696785, -0.15139363706111908, 0.0366203747689724, -0.9877949953079224, 0.0015675872564315796, 0.0941932201385498, -0.010511279106140137, -0.018495174927089304, -0.07589756739024686, 0.9969426222086947,-0.0016922974814806357,-0.1453704833984375,0.1314849853515625,-0.99993896484375
20230215-1535,2023-02-15 15:35:00Z,u02, 10,100,movements,el-ex, lt, nd,281370.1165412917, -0.15164946183179875, -0.03683116635791199, -0.005381997276731388, 0.017301127314567566, 0.04562191292643547, 0.07962746173143387, -0.15096642076969147, 0.0368228405714035, -0.9878528118133545, 8.752942085266113e-05, 0.0713314563035965, -0.013108491897583008, -0.018565378885903042, -0.07568956386605152, 0.9969577553831002,-0.0012878732402141235,-0.150909423828125,0.118621826171875,-1.000579833984375
20230215-1535,2023-02-15 15:35:00Z,u02, 11,100,movements,el-ex, lt, nd,281370.1265632917, -0.15115612192105085, -0.03680647672728792, -0.004555030873905891, 0.01117304153740406, 0.048584945499897, 0.08648873120546341, -0.15047918260097504, 0.03679816797375679, -0.9879280924797058, -0.01204216480255127, 0.04935295507311821, -0.0025656819343566895, -0.01852155605796112, -0.07545135352494185, 0.9969771177456682,-0.0008811521920779582,-0.155975341796875,0.0984344482421875,-0.9952239990234375
20230215-1535,2023-02-15 15:35:00Z,u02, 12,100,movements,el-ex, lt, nd,281370.13658629166, -0.15065369663087202, -0.03697429866426081, -0.003727565778419529, -0.02529548853635788, 0.045401670038700104, 0.0778219997882843, -0.14998187124729156, 0.03696587309241295, -0.9879974722862244, -0.012600511312484741, 0.02074286714196205, 0.013006627559661865, -0.01857387767426809, -0.07520828107702722, 0.9969948022959234,-0.00046699874442637746,-0.1663360595703125,0.071990966796875,-0.9847564697265625
20230215-1535,2023-02-15 15:35:00Z,u02, 13,100,movements,el-ex, lt, nd,281370.14660929167, -0.15013668162037586, -0.03752851276042487, -0.003039723969794636, -0.06263848394155502, 0.05428464338183403, 0.07846121490001678, -0.14946796000003815, 0.037519704550504684, -0.9880544543266296, 0.0010152161121368408, 0.0067307837307453156, 0.02655237913131714, -0.018824257884114997, -0.07495613206018199, 0.9970090958221675,-0.0001081193074402029,-0.1553192138671875,0.045074462890625,-0.9660797119140625
20230215-1535,2023-02-15 15:35:00Z,u02, 14,100,movements,el-ex, lt, nd,281370.1566322917, -0.1495275288708274, -0.03823459818475924, -0.002292150687016704, -0.049304571002721786, 0.06092230603098869, 0.0918092429637909, -0.1488620787858963, 0.03822528198361397, -0.9881188869476318, -0.004610821604728699, 0.03616131469607353, 0.035085439682006836, -0.01914831157025681, -0.07465859270095317, 0.9970251959436257,0.0002851976738978509,-0.1478271484375,0.0586395263671875,-0.95684814453125
20230215-1535,2023-02-15 15:35:00Z,u02, 15,100,movements,el-ex, lt, nd,281370.1666542917, -0.14891511216327155, -0.03873085872177184, -0.0013468615856094383, -0.02168618142604828, 0.05423218011856079, 0.10752806812524796, -0.14825406670570374, 0.038721177726984024, -0.9881909489631653, -0.01306183636188507, 0.044271375983953476, 0.020600616931915283, -0.01936064840941871, -0.07436180646920952, 0.997043095243398,0.0007690412191042592,-0.1592254638671875,0.0831756591796875,-0.9551544189453125
20230215-1535,2023-02-15 15:35:00Z,u02, 16,100,movements,el-ex, lt, nd,281370.1766772917, -0.14829762113134828, -0.03903876236191361, -0.00030763637298119163, -0.009716338478028774, 0.060200322419404984, 0.10673072189092636, -0.1476420760154724, 0.039028845727443695, -0.9882705211639404, -0.007066771388053894, 0.03842476010322571, 0.0007064342498779297, -0.019475903735202072, -0.07406377919475596, 0.997062437257705,0.0012925550077304954,-0.1594085693359375,0.0777587890625,-0.97918701171875
20230215-1535,2023-02-15 15:35:00Z,u02, 17,100,movements,el-ex, lt, nd,281370.1867002917, -0.1486636751877844, -0.12440939228842798, 0.0006812087407238216, 0.012666618451476097, 0.05721172317862511, 0.10944203287363052, -0.1469719111919403, 0.12408871203660965, -0.9813262820243835, 0.0005027949810028076, -0.04105038195848465, -0.013348400592803955, -0.061967679862696426, -0.07414088367336116, 0.99530830509945,0.004955560378334744,-0.1519317626953125,0.0819091796875,-0.993896484375
20230215-1535,2023-02-15 15:35:00Z,u02, 18,100,movements,el-ex, lt, nd,281370.1967232917, -0.14845803575772873, -0.11512454054113251, 0.0016851976138888844, 0.03350665047764778, 0.06036810204386711, 0.09710627049207687, -0.14693419635295868, 0.11487040668725967, -0.9824536442756653, 0.018073737621307373, -0.036348678171634674, -0.004713714122772217, -0.057309657378212864, -0.07408635247692347, 0.9955907118778463,0.00510539545319807,-0.1378173828125,0.080169677734375,-0.99176025390625
20230215-1535,2023-02-15 15:35:00Z,u02, 19,100,movements,el-ex, lt, nd,281370.2067452917, -0.15331448356381538, -0.10392521401953997, 0.0020359976019611896, 0.04690497741103172, 0.0699717253446579, 0.08476991951465607, -0.1518906205892563, 0.10373824089765549, -0.9829382300376892, 0.03273475170135498, -0.024636685848236084, 0.010266780853271484, -0.05170881246488315, -0.07653149872750808, 0.9957129186680144,0.004991256462699425,-0.1205291748046875,0.077789306640625,-0.978668212890625
20230215-1535,2023-02-15 15:35:00Z,u02, 20,100,movements,el-ex, lt, nd,281370.21676829166, -0.15615059032414724, -0.08995694237878415, 0.00263043027795082, 0.06404934823513031, 0.06284830719232559, 0.08632414042949677, -0.15488797426223755, 0.08983566612005234, -0.9838390350341797, 0.027812793850898743, -0.009940646588802338, 0.009946823120117188, -0.04472381992190398, -0.07797600903689933, 0.9959398633144391,0.004816837695457484,-0.120880126953125,0.081573486328125,-0.97027587890625
20230215-1535,2023-02-15 15:35:00Z,u02, 21,100,movements,el-ex, lt, nd,281370.2267912917, -0.15466307253748282, -0.07897471049024635, 0.0035976111978148987, 0.03498261421918869, 0.052868906408548355, 0.07733442634344101, -0.15356706082820892, 0.07889264076948166, -0.9849838018417358, 0.013735532760620117, -0.012471131980419159, -0.0014816522598266602, -0.03922019167385141, -0.07726493506753035, 0.9962271280638841,0.004841808151314442,-0.1323394775390625,0.0750732421875,-0.9808807373046875
20230215-1535,2023-02-15 15:35:00Z,u02, 22,100,movements,el-ex, lt, nd,281370.2368132917, -0.1549893875711697, -0.07857915473508166, 0.004256960559360856, 0.0010853670537471771, 0.05248408019542694, 0.06835930794477463, -0.15389326214790344, 0.07849831134080887, -0.9849644303321838, 0.0034263432025909424, -0.028846219182014465, -0.0003108382225036621, -0.03899684046654828, -0.07744058396409402, 0.9962206665600227,0.005161350468707318,-0.1461181640625,0.05706787109375,-0.9886474609375
20230215-1535,2023-02-15 15:35:00Z,u02, 23,100,movements,el-ex, lt, nd,281370.2468362917, -0.1557531693270787, -0.07946856901410107, 0.004792768667831779, -0.005677026230841875, 0.05332697182893753, 0.06040319800376892, -0.15463462471961975, 0.0793849527835846, -0.9847772121429443, 0.004656001925468445, -0.043862491846084595, 0.011068105697631836, -0.039417033826341895, -0.07783116893259462, 0.9961719492030352,0.005477654841802317,-0.153228759765625,0.0428009033203125,-0.9791717529296875
20230215-1535,2023-02-15 15:35:00Z,u02, 24,100,movements,el-ex, lt, nd,281370.2568592917, -0.15511473007871743, -0.0793682915835473, 0.00536452550188612, -0.0012716255150735378, 0.0561017170548439, 0.05017239972949028, -0.15400710701942444, 0.07928498834371567, -0.9848836064338684, 0.015152126550674438, -0.04850801080465317, 0.019063293933868408, -0.03934666819400103, -0.07752444854050858, 0.9961971989799582,0.005745985731628369,-0.144256591796875,0.0306549072265625,-0.970611572265625
20230215-1535,2023-02-15 15:35:00Z,u02, 25,100,movements,el-ex, lt, nd,281370.2668822917, -0.15332421128097024, -0.07983372846225868, 0.00588473566090842, -0.002680323552340269, 0.05307157337665558, 0.03990393877029419, -0.15223775804042816, 0.07974895089864731, -0.9851211905479431, 0.01977621018886566, -0.037207454442977905, 0.013914525508880615, -0.039563717928595074, -0.07664277459947708, 0.9962553227730201,0.00598767442480049,-0.135406494140625,0.0363922119140625,-0.9676513671875
20230215-1535,2023-02-15 15:35:00Z,u02, 26,100,movements,el-ex, lt, nd,281370.2769042917, -0.14994736479569298, -0.07973517340309685, 0.0065093108165520455, -0.0010922807268798351, 0.05376399680972099, 0.039210185408592224, -0.1489114612340927, 0.07965071499347687, -0.9856374263763428, 0.016907677054405212, -0.027847126126289368, 0.0019643306732177734, -0.039501258264298775, -0.07497290446776451, 0.9963834236872343,0.006228341253522392,-0.1328887939453125,0.04742431640625,-0.976593017578125
20230215-1535,2023-02-15 15:35:00Z,u02, 27,100,movements,el-ex, lt, nd,281370.28692729166, -0.1464462500844832, -0.0798816087861982, 0.007121785299326574, -0.0010943347588181496, 0.04660328850150108, 0.036933451890945435, -0.14545802772045135, 0.0797966793179512, -0.9861412048339844, 0.01705533266067505, -0.021508105099201202, -0.010501861572265625, -0.039562638480135005, -0.07324070915199818, 0.9965082455241543,0.006469693809217143,-0.13116455078125,0.0557708740234375,-0.9900665283203125
20230215-1535,2023-02-15 15:35:00Z,u02, 28,100,movements,el-ex, lt, nd,281370.29695029167, -0.1442841132885247, -0.08013598641292558, 0.007627520600912628, -0.009570909664034843, 0.040174949914216995, 0.042098384350538254, -0.14332258701324463, 0.08005024492740631, -0.9864332675933838, 0.017223969101905823, -0.02136494219303131, -0.015611410140991211, -0.03967811629528351, -0.07217349111107417, 0.9965801062570195,0.0066880650787689505,-0.126617431640625,0.059600830078125,-1.0018463134765625
20230215-1535,2023-02-15 15:35:00Z,u02, 29,100,movements,el-ex, lt, nd,281370.3069732917, -0.14362161442152846, -0.07916120234502685, 0.008074888926681258, -0.026407450437545776, 0.022124310955405235, 0.04722752794623375, -0.14268015325069427, 0.0790785476565361, -0.9866047501564026, 0.014857292175292969, -0.0194929838180542, -0.013547778129577637, -0.039178506920694973, -0.07185167701221148, 0.9966219185490125,0.006862982152140706,-0.1283721923828125,0.05938720703125,-1.0000152587890625
20230215-1535,2023-02-15 15:35:00Z,u02, 30,100,movements,el-ex, lt, nd,281370.3169952917, -0.14417598505609117, -0.07709670695642466, 0.008469193355169425, -0.038667578250169754, 0.002427570289000869, 0.05667642503976822, -0.1432502269744873, 0.07702035456895828, -0.9866849780082703, 0.020035505294799805, -0.023309417068958282, -0.013665974140167236, -0.038133597203767744, -0.07213419144537947, 0.9966411308850482,0.006996202954891038,-0.124664306640625,0.0582122802734375,-1.000213623046875
20230215-1535,2023-02-15 15:35:00Z,u02, 31,100,movements,el-ex, lt, nd,281370.3270182917, -0.14499028640504918, -0.0744389597250445, 0.008994347292469652, -0.051508981734514236, -0.022221315652132034, 0.07528070360422134, -0.1440826952457428, 0.07437023520469666, -0.986767053604126, 0.01815192401409149, -0.031096309423446655, -0.0021092891693115234, -0.03678726283195534, -0.07254766972753363, 0.99666040503247,0.007177459154603794,-0.12396240234375,0.0475006103515625,-0.996856689453125
20230215-1535,2023-02-15 15:35:00Z,u02, 32,100,movements,el-ex, lt, nd,281370.3370412917, -0.14518720350941758, -0.07208355507139325, 0.00981628057702476, -0.07728758454322815, -0.05638141557574272, 0.1095673069357872, -0.14430195093154907, 0.07202114909887314, -0.9869092702865601, 0.015212610363960266, -0.03547634929418564, 0.01922738552093506, -0.03558288502033222, -0.0726582799577496, 0.9966936300670813,0.00750552300157002,-0.1285247802734375,0.039520263671875,-0.9788055419921875
20230215-1535,2023-02-15 15:35:00Z,u02, 33,100,movements,el-ex, lt, nd,281370.3470642917, -0.14520398457310202, -0.07127534993385576, 0.010998179142339947, -0.1141594797372818, -0.10311110317707062, 0.14681163430213928, -0.14432689547538757, 0.07121501863002777, -0.9869641065597534, 0.013208121061325073, -0.03889690339565277, 0.04307067394256592, -0.035137093932997805, -0.07268649163514929, 0.996703034013164,0.008065600828925275,-0.1309051513671875,0.0340423583984375,-0.955535888671875
20230215-1535,2023-02-15 15:35:00Z,u02, 34,100,movements,el-ex, lt, nd,281370.3570862917, -0.1456820367809073, -0.07199305326469736, 0.01249436314631729, -0.17208777368068695, -0.14777471125125885, 0.18939238786697388, -0.14479123055934906, 0.07193087786436081, -0.9868441820144653, 0.012146592140197754, -0.046525001525878906, 0.06608307361602783, -0.03543826801043974, -0.07295228608448509, 0.9966663987404175,0.008845627338023382,-0.1316986083984375,0.027862548828125,-0.9325714111328125
20230215-1535,2023-02-15 15:35:00Z,u02, 35,100,movements,el-ex, lt, nd,281370.36710929166, -0.14653584886516346, -0.07382596799187803, 0.014370815794750802, -0.2226962298154831, -0.17904022336006165, 0.22974523901939392, -0.14561426639556885, 0.07375892251729965, -0.9865881204605103, 0.0057217031717300415, -0.04809363931417465, 0.08668577671051025, -0.036279016510796104, -0.07341510037121346, 0.9965925254040575,0.009862623198112975,-0.1360626220703125,0.0249481201171875,-0.911529541015625
20230215-1535,2023-02-15 15:35:00Z,u02, 36,100,movements,el-ex, lt, nd,281370.3771322917, -0.14779609692448611, -0.07651644230604719, 0.016245003682399808, -0.2892206609249115, -0.17101851105690002, 0.21719668805599213, -0.14682774245738983, 0.07644180208444595, -0.9862039685249329, 0.00023655593395233154, -0.04113296419382095, 0.13213902711868286, -0.03754399704702713, -0.07408417695839525, 0.9964851677724722,0.010918171220391801,-0.1419677734375,0.0248870849609375,-0.8737945556640625
20230215-1535,2023-02-15 15:35:00Z,u02, 37,100,movements,el-ex, lt, nd,281370.3871552917, -0.14899230497137056, -0.07934380423509994, 0.0179447700191899, -0.23633527755737305, -0.14670757949352264, 0.20058293640613556, -0.1479746699333191, 0.07926058024168015, -0.9858099222183228, -0.025853440165519714, 0.015969514846801758, 0.13224858045578003, -0.038882647038625, -0.074720581348412, 0.9963751658316191,0.011892118198287819,-0.159454345703125,0.0622100830078125,-0.8481597900390625
20230215-1535,2023-02-15 15:35:00Z,u02, 38,100,movements,el-ex, lt, nd,281370.3971772917, -0.1500169173755299, -0.0809699896644531, 0.019637956518916647, -0.07749182730913162, -0.1504645049571991, 0.18349502980709076, -0.14896520972251892, 0.08088154345750809, -0.9855290651321411, -0.040960922837257385, 0.05431132763624191, 0.07615101337432861, -0.03962298551090484, -0.07526941932713903, 0.9962932378155245,0.012816084800466527,-0.1847991943359375,0.1175994873046875,-0.8727264404296875
20230215-1535,2023-02-15 15:35:00Z,u02, 39,100,movements,el-ex, lt, nd,281370.4072002917, -0.15125304991907132, -0.08104823858595317, 0.021334617978025425, 0.02629699930548668, -0.1781267672777176, 0.1556038111448288, -0.15018238127231598, 0.08095953613519669, -0.9853379130363464, -0.025781959295272827, 0.06364800781011581, -0.015989601612091064, -0.03958964646231096, -0.07591905567470458, 0.9962336633721958,0.013688650442415455,-0.1870880126953125,0.1459808349609375,-0.9529876708984375
20230215-1535,2023-02-15 15:35:00Z,u02, 40,100,movements,el-ex, lt, nd,281370.4172232917, -0.1530226999899424, -0.08050707629903803, 0.0225791583431991, 0.03799200430512428, -0.2239576280117035, 0.08959122747182846, -0.1519325077533722, 0.08042013645172119, -0.9851137399673462, 0.016632825136184692, 0.04665505886077881, -0.09873330593109131, -0.0392601594902296, -0.07682292466868536, 0.9961684726945641,0.014323016005754743,-0.1582794189453125,0.1356964111328125,-1.0455474853515625
20230215-1535,2023-02-15 15:35:00Z,u02, 41,100,movements,el-ex, lt, nd,281370.4272452917, -0.15515731214439696, -0.08042451672231234, 0.02349340095318354, -0.05496441572904587, -0.23655225336551666, 0.08750101923942566, -0.1540360152721405, 0.08033784478902817, -0.9847937822341919, 0.06504678726196289, 0.018905311822891235, -0.1314476728439331, -0.0391681199520572, -0.07790367117814098, 0.9960809787192305,0.01481706318161102,-0.1108856201171875,0.11566162109375,-1.1085968017578125
20230215-1535,2023-02-15 15:35:00Z,u02, 42,100,movements,el-ex, lt, nd,281370.43726829166, -0.1575464843286385, -0.08172902801349118, 0.023931539529519878, -0.23390060663223267, -0.24981799721717834, 0.04104537144303322, -0.1563718467950821, 0.08163807541131973, -0.9843185544013977, 0.09741190075874329, -0.03148244321346283, -0.13088524341583252, -0.03978274027526641, -0.07910778697105074, 0.9959569810869571,0.015132997738795728,-0.070556640625,0.0709075927734375,-1.1143035888671875
20230215-1535,2023-02-15 15:35:00Z,u02, 43,100,movements,el-ex, lt, nd,281370.44729129167, -0.1600290721692538, -0.084648619362951, 0.023634758434858766, -0.37990713119506836, -0.2430138736963272, 0.003126884577795863, -0.15877635776996613, 0.08454756438732147, -0.9836878180503845, 0.11328993737697601, -0.037550508975982666, -0.1410222053527832, -0.04122966794098271, -0.08035042590223884, 0.9957984117727582,0.015150447527317538,-0.05181884765625,0.0482330322265625,-1.117828369140625
20230215-1535,2023-02-15 15:35:00Z,u02, 44,100,movements,el-ex, lt, nd,281370.4573142917, -0.1625750505895432, -0.08867806737087143, 0.022914421887412724, -0.4450640380382538, -0.25099271535873413, -0.0022130198776721954, -0.16122382879257202, 0.08856188505887985, -0.9829362630844116, 0.12426705658435822, -0.06986987590789795, -0.16052687168121338, -0.04324587871703814, -0.08161905471907237, 0.9956118420199382,0.015006732833055083,-0.0421600341796875,0.034912109375,-1.134002685546875
20230215-1535,2023-02-15 15:35:00Z,u02, 45,100,movements,el-ex, lt, nd,281370.4673362917, -0.16513761255793458, -0.09251401375843286, 0.0224815355543816, -0.30730140209198, -0.2570226490497589, 0.04196682572364807, -0.16368508338928223, 0.09238210320472717, -0.9821775555610657, 0.13026835024356842, -0.11983266472816467, -0.18367022275924683, -0.04515399706181849, -0.08289959452130125, 0.9954212894630559,0.015003700929263866,-0.033660888671875,0.0008544921875,-1.1544342041015625
20230215-1535,2023-02-15 15:35:01Z,u02, 46,100,movements,el-ex, lt, nd,281370.4773592917, -0.16785897905767302, -0.09513905885467985, 0.022372971953845924, -0.21593153476715088, -0.28215354681015015, 0.015506988391280174, -0.16631625592708588, 0.09499560296535492, -0.9814859628677368, 0.13486790657043457, -0.20377551019191742, -0.19130456447601318, -0.04644455150907342, -0.08426097285096586, 0.9952458527385042,0.015120315554952296,-0.0341339111328125,-0.0709075927734375,-1.177490234375
20230215-1535,2023-02-15 15:35:01Z,u02, 47,100,movements,el-ex, lt, nd,281370.4873822917, -0.1706633182144049, -0.09667907118768036, 0.022126824757410835, -0.10016976296901703, -0.2650829553604126, -0.004707762505859137, -0.16904297471046448, 0.0965285375714302, -0.9808703660964966, 0.14472046494483948, -0.1635298728942871, -0.14197814464569092, -0.047200158371619755, -0.08565601446036107, 0.9950910500803194,0.015128090600109051,-0.024505615234375,-0.101409912109375,-1.1558685302734375
20230215-1535,2023-02-15 15:35:01Z,u02, 48,100,movements,el-ex, lt, nd,281370.4974052917, -0.17312702023323798, -0.0973684945305027, 0.021976940434572455, -0.0430297814309597, -0.22917050123214722, -0.004740786273032427, -0.1714475303888321, 0.0972147136926651, -0.9803851246833801, 0.11207559704780579, -0.1273355782032013, -0.0606456995010376, -0.04753100620400028, -0.08688053359990253, 0.9949690235814239,0.015141236634433543,-0.0348358154296875,-0.042327880859375,-1.0809478759765625
20230215-1535,2023-02-15 15:35:01Z,u02, 49,100,movements,el-ex, lt, nd,281370.5074272917, -0.17535259181808086, -0.09793642186171093, 0.021808164683592174, -0.09526703506708145, -0.21333001554012299, -0.008083052933216095, -0.1736193597316742, 0.09777993708848953, -0.9799466133117676, 0.060673803091049194, -0.10049600154161453, -0.022128582000732422, -0.04780408717940537, -0.08798552847000396, 0.9948588817566808,0.015134848395207663,-0.0861663818359375,-0.013336181640625,-1.0165863037109375
20230215-1535,2023-02-15 15:35:01Z,u02, 50,100,movements,el-ex, lt, nd,281370.51745029166, -0.17739909164062542, -0.09952364032591532, 0.021715560155846362, -0.2256508767604828, -0.19783948361873627, 0.06447344273328781, -0.17559683322906494, 0.0993594229221344, -0.9794352650642395, 0.013609543442726135, -0.1034030020236969, -0.010127723217010498, -0.04858221355014267, -0.08900636151182816, 0.9947292739830259,0.015207482956370866,-0.1373443603515625,-0.00335693359375,-0.99658203125
20230215-1535,2023-02-15 15:35:01Z,u02, 51,100,movements,el-ex, lt, nd,281370.5274732917, -0.17951727111845633, -0.10280325222010353, 0.02209979942618302, -0.39220985770225525, -0.24566799402236938, 0.10381605476140976, -0.17761193215847015, 0.10262227058410645, -0.9787352681159973, 0.004592522978782654, -0.14385151863098145, -0.008462607860565186, -0.05017987510411263, -0.09007973933419673, 0.9945473135946324,0.015595895541266717,-0.178863525390625,-0.01605224609375,-0.9691162109375
20230215-1535,2023-02-15 15:35:01Z,u02, 52,100,movements,el-ex, lt, nd,281370.5374962917, -0.18220786756642537, -0.10749302488956453, 0.02209933996172262, -0.5481616258621216, -0.28930893540382385, 0.06329658627510071, -0.18015547096729279, 0.10728613287210464, -0.9777697324752808, 0.06934617459774017, -0.15445107221603394, -0.06628233194351196, -0.05249078680209788, -0.09143216685560396, 0.9943001572881541,0.015874829547076738,-0.1408233642578125,-0.05096435546875,-1.034423828125
20230215-1535,2023-02-15 15:35:01Z,u02, 53,100,movements,el-ex, lt, nd,281370.5475182917, -0.1853646484292392, -0.11360835445662565, 0.021699684482093234, -0.6675851345062256, -0.3287636637687683, 0.09292183071374893, -0.1831168234348297, 0.11336412280797958, -0.976533055305481, 0.0773276537656784, -0.09207811206579208, -0.08650100231170654, -0.055524126836575864, -0.09300830464097391, 0.9939865588297996,0.016039711618953918,-0.1006317138671875,-0.02398681640625,-1.0617828369140625
20230215-1535,2023-02-15 15:35:01Z,u02, 54,100,movements,el-ex, lt, nd,281370.5575412917, -0.1889926703436139, -0.12097311871646522, 0.021498597493396998, -0.7730103135108948, -0.39150989055633545, 0.1334756463766098, -0.1864965856075287, 0.12067826837301254, -0.9750157594680786, 0.07667909562587738, -0.08230242133140564, -0.07150828838348389, -0.05916413064094188, -0.09482465151965615, 0.9935991926031332,0.016385012752023843,-0.1102447509765625,0.04400634765625,-1.0456390380859375
20230215-1535,2023-02-15 15:35:01Z,u02, 55,100,movements,el-ex, lt, nd,281370.5675642917, -0.1931089007564286, -0.12932358181613277, 0.021138826067276326, -0.8747981190681458, -0.4107392430305481, 0.10972350090742111, -0.1903083473443985, 0.1289633959531784, -0.9732168912887573, 0.09278944134712219, -0.1121329814195633, -0.0272102952003479, -0.06329539315919225, -0.09687742625577561, 0.9931407219445684,0.01672700095619909,-0.1036224365234375,0.0266876220703125,-1.0270538330078125
20230215-1535,2023-02-15 15:35:01Z,u02, 56,100,movements,el-ex, lt, nd,281370.57758729166, -0.19708105227219821, -0.13818639117487988, 0.02029411918876266, -0.8763920068740845, -0.35460007190704346, 0.0694437250494957, -0.1939411759376526, 0.13774701952934265, -0.9712942838668823, 0.07701307535171509, -0.10460492968559265, 0.09597384929656982, -0.06770390101073571, -0.09883846538750889, 0.9926543612911103,0.01686527823834385,-0.10107421875,0.0216522216796875,-0.9495391845703125
20230215-1535,2023-02-15 15:35:01Z,u02, 57,100,movements,el-ex, lt, nd,281370.58760929166, -0.20032289734749623, -0.14636750022650982, 0.01896762522584078, -0.769770622253418, -0.2548377811908722, -0.013372782617807388, -0.19685810804367065, 0.1458454430103302, -0.9695236086845398, 0.010288909077644348, -0.0843067467212677, 0.1949416995048523, -0.07180292768471595, -0.10041186816397185, 0.9922107756559021,0.016721960517499766,-0.14691162109375,0.0434417724609375,-0.82330322265625
20230215-1535,2023-02-15 15:35:01Z,u02, 58,100,movements,el-ex, lt, nd,281370.59763229167, -0.20282887861844723, -0.1530617351283986, 0.01675278495584483, -0.621444821357727, -0.1880291849374771, -0.15463776886463165, -0.19908595085144043, 0.15246477723121643, -0.9680492281913757, -0.07689975202083588, 0.01913556456565857, 0.23591727018356323, -0.07521513944463215, -0.10157793883964539, 0.9918503157012624,0.0160490697308161,-0.2315216064453125,0.1003875732421875,-0.739013671875
20230215-1535,2023-02-15 15:35:01Z,u02, 59,100,movements,el-ex, lt, nd,281370.6076552917, -0.20507712028029357, -0.15796007371423565, 0.013223163885956377, -0.482617050409317, -0.15223444998264313, -0.3269435465335846, -0.20110735297203064, 0.15730400383472443, -0.9668564200401306, -0.15047036111354828, 0.18540838360786438, 0.16605991125106812, -0.07780718374829332, -0.10255654877059127, 0.9915715688842858,0.014632040356189705,-0.315582275390625,0.2561187744140625,-0.7538604736328125
20230215-1535,2023-02-15 15:35:01Z,u02, 60,100,movements,el-ex, lt, nd,281370.6176772917, -0.2070444506762148, -0.16116508910092925, 0.00846283753033781, -0.33508166670799255, -0.08745598047971725, -0.4507374167442322, -0.20290441811084747, 0.16046831011772156, -0.9659605026245117, -0.21909265220165253, 0.34630659222602844, 0.10382366180419922, -0.07962785629219252, -0.10333994804961077, 0.9913746634374448,0.01251320305046052,-0.3852691650390625,0.4297943115234375,-0.8437042236328125
20230215-1535,2023-02-15 15:35:01Z,u02, 61,100,movements,el-ex, lt, nd,281370.6277002917, -0.20846761500368857, -0.16294834561916335, 0.003091063972750821, -0.23904690146446228, -0.024075675755739212, -0.5146340131759644, -0.20421938598155975, 0.16222819685935974, -0.9653892517089844, -0.29338496923446655, 0.41095292568206787, 0.08246999979019165, -0.08078199084354692, -0.10382500427508697, 0.9912591131985437,0.0099996526864224,-0.4624786376953125,0.5572662353515625,-0.871734619140625
20230215-1535,2023-02-15 15:35:01Z,u02, 62,100,movements,el-ex, lt, nd,281370.6377232917, -0.2094138329072186, -0.16424525463010298, -0.002904001615715892, -0.27771279215812683, 0.031686924397945404, -0.585131049156189, -0.20508883893489838, 0.16350778937339783, -0.9649890065193176, -0.35547327995300293, 0.3723198473453522, 0.04430419206619263, -0.08173225148895352, -0.10404489640727405, 0.9911829052302079,0.007134269339004405,-0.53155517578125,0.56024169921875,-0.898468017578125
20230215-1535,2023-02-15 15:35:01Z,u02, 63,100,movements,el-ex, lt, nd,281370.6477462917, -0.20994800835985383, -0.164906796183247, -0.00856163331181089, -0.009978394024074078, 0.025480160489678383, -0.4414128065109253, -0.2055816948413849, 0.16416038572788239, -0.9647732973098755, -0.3684386610984802, 0.3215879201889038, -0.013315081596374512, -0.082352910416414, -0.10407375655299361, 0.9911444647829929,0.0043869353610426105,-0.57861328125,0.5169677734375,-0.9403839111328125
20230215-1535,2023-02-15 15:35:01Z,u02, 64,100,movements,el-ex, lt, nd,281370.6577682917, -0.21092414369041088, -0.16275912173801252, -0.01184671266015601, 0.2130480259656906, -0.11240926384925842, -0.32195350527763367, -0.20659668743610382, 0.16204147040843964, -0.9649146795272827, -0.2066875845193863, 0.011038944125175476, -0.1430259346961975, -0.08145816690008968, -0.10443763200504257, 0.9911862535418201,0.002686035869046046,-0.5227203369140625,0.3760986328125,-1.0434417724609375
20230215-1535,2023-02-15 15:35:01Z,u02, 65,100,movements,el-ex, lt, nd,281370.66779129166, -0.21284914043339442, -0.1607181854216082, -0.015435872267132637, 0.027185523882508278, -0.13444958627223969, -0.4655878245830536, -0.2085231989622116, 0.1600271761417389, -0.9648364782333374, 0.0317806601524353, -0.2404104769229889, -0.1755443811416626, -0.08063326649196201, -0.10526181360155164, 0.991169758707608,0.0008771800381925576,-0.279388427734375,-0.011505126953125,-1.1459503173828125
20230215-1535,2023-02-15 15:35:01Z,u02, 66,100,movements,el-ex, lt, nd,281370.6778142917, -0.2145939557414743, -0.15988481751167438, -0.020324143690221286, -0.04555898532271385, -0.059117816388607025, -0.48704543709754944, -0.2102346569299698, 0.15920449793338776, -0.9646010994911194, 0.08911041915416718, -0.11863139271736145, -0.04704129695892334, -0.08047871704382212, -0.10593685317097691, 0.991109620528083,-0.0015196182797779473,-0.1291961669921875,-0.0392913818359375,-1.0882110595703125
20230215-1535,2023-02-15 15:35:01Z,u02, 67,100,movements,el-ex, lt, nd,281370.6878372917, -0.21566145853073349, -0.15933015997905814, -0.024707172984238232, -0.02380659058690071, -0.022396551445126534, -0.3799440562725067, -0.2112831175327301, 0.15865688025951385, -0.9644622802734375, 0.0895027369260788, -0.010402485728263855, 0.058685302734375, -0.08043785477523659, -0.10629499125813181, 0.9910689273102633,-0.0036785849811802923,-0.124176025390625,0.10467529296875,-0.9456634521484375
20230215-1535,2023-02-15 15:35:01Z,u02, 68,100,movements,el-ex, lt, nd,281370.6978592917, -0.21651984281008277, -0.15851756518827037, -0.02802492200014157, 0.03697233647108078, -0.05421040952205658, -0.30072566866874695, -0.21213854849338531, 0.15785452723503113, -0.9644061326980591, 0.10453356802463531, 0.05569221079349518, 0.05940735340118408, -0.08021379140737596, -0.10659587620078287, 0.9910472998404872,-0.005332245535870222,-0.112640380859375,0.1846771240234375,-0.891387939453125
20230215-1535,2023-02-15 15:35:01Z,u02, 69,100,movements,el-ex, lt, nd,281370.7078822917, -0.21794565594664156, -0.1575867442784804, -0.03079254473943422, 0.010859415866434574, -0.14589132368564606, -0.265571653842926, -0.2135450690984726, 0.15693531930446625, -0.9642457365989685, 0.09283280372619629, 0.04606761038303375, 0.006817758083343506, -0.07990489557637347, -0.10720236476373823, 0.9909985055043257,-0.006697385279425443,-0.1107025146484375,0.218353271484375,-0.929840087890625
20230215-1535,2023-02-15 15:35:01Z,u02, 70,100,movements,el-ex, lt, nd,281370.7179052917, -0.22019151204448495, -0.15783090081955833, -0.03281643432919449, -0.13027827441692352, -0.24362614750862122, -0.07662783563137054, -0.21570171415805817, 0.1571764349937439, -0.963726282119751, 0.07754865288734436, 0.00420050323009491, -0.03798270225524902, -0.08014285987444793, -0.10823115033312494, 0.9908609993798122,-0.007596837161515316,-0.130706787109375,0.1805572509765625,-0.9795379638671875
20230215-1535,2023-02-15 15:35:01Z,u02, 71,100,movements,el-ex, lt, nd,281370.72792829166, -0.22320391344309748, -0.1589475632084996, -0.0324141724583136, -0.06856366991996765, -0.3613394498825073, 0.18185216188430786, -0.21856488287448883, 0.15827912092208862, -0.9629003405570984, 0.09290876984596252, -0.10990878939628601, -0.08226561546325684, -0.08068510833964132, -0.10972570034185426, 0.9906554423984903,-0.007214167374801718,-0.1389007568359375,0.1277618408203125,-1.02740478515625
20230215-1535,2023-02-15 15:35:01Z,u02, 72,100,movements,el-ex, lt, nd,281370.73795029166, -0.2267242865506905, -0.15998051480480432, -0.03013867242755831, -0.02542712539434433, -0.4058651030063629, 0.299074649810791, -0.22191640734672546, 0.15929897129535675, -0.9619651436805725, 0.15374015271663666, -0.26752954721450806, -0.10436481237411499, -0.08108220696264555, -0.11154864774478593, 0.9904281924737447,-0.005886387358594716,-0.09735107421875,-0.056060791015625,-1.0652008056640625
20230215-1535,2023-02-15 15:35:01Z,u02, 73,100,movements,el-ex, lt, nd,281370.74797329167, -0.2303190916209251, -0.16139844452921254, -0.026697320292561368, -0.10509078949689865, -0.4197247326374054, 0.423366516828537, -0.22532126307487488, 0.16069863736629486, -0.9609403014183044, 0.20765160024166107, -0.22515176236629486, 0.05365276336669922, -0.08159938730081773, -0.1134521304567522, 0.9901790018121858,-0.003954825509632804,-0.044097900390625,-0.0959014892578125,-0.988128662109375
20230215-1535,2023-02-15 15:35:01Z,u02, 74,100,movements,el-ex, lt, nd,281370.7579962917, -0.23373080905995902, -0.1634046544641031, -0.02198661601781019, -0.03986412286758423, -0.41546499729156494, 0.5799238681793213, -0.22852326929569244, 0.16267845034599304, -0.9598504304885864, 0.26908114552497864, -0.11855003237724304, 0.09365475177764893, -0.08232740361249365, -0.11531255484467726, 0.9899107872152316,-0.001366396410626286,0.0152435302734375,-0.011138916015625,-0.8784942626953125
20230215-1535,2023-02-15 15:35:01Z,u02, 75,100,movements,el-ex, lt, nd,281370.7680182917, -0.2368409761549085, -0.16478595187289316, -0.015701714156858747, 0.026371624320745468, -0.4115075469017029, 0.6648033261299133, -0.2314545065164566, 0.1640411913394928, -0.9589157104492188, 0.2932220697402954, -0.0712067186832428, 0.11260223388671875, -0.08264525802561953, -0.11709790130877899, 0.9896736466015774,0.001953572410973805,0.056396484375,0.0802459716796875,-0.859527587890625
20230215-1535,2023-02-15 15:35:01Z,u02, 76,100,movements,el-ex, lt, nd,281370.7780412917, -0.2396383560646607, -0.1660842729869175, -0.009302774717758361, 0.009289576672017574, -0.35082903504371643, 0.6160928010940552, -0.2340853065252304, 0.16532178223133087, -0.9580567479133606, 0.2625429630279541, 0.016791850328445435, 0.14442765712738037, -0.08290520310409666, -0.11873643183726364, 0.9894443867037395,0.005312629437670041,0.0542144775390625,0.1167144775390625,-0.840911865234375
20230215-1535,2023-02-15 15:35:01Z,u02, 77,100,movements,el-ex, lt, nd,281370.7880642917, -0.24180345018828148, -0.16768928990079937, -0.003653477975733022, -0.06764353066682816, -0.275025337934494, 0.5298784375190735, -0.23609519004821777, 0.1669044941663742, -0.9572888612747192, 0.16198326647281647, 0.1639365702867508, 0.18658268451690674, -0.08335452761339049, -0.12003165704596133, 0.9892297647500808,0.008293392427086807,-0.016693115234375,0.260284423828125,-0.7850341796875
20230215-1535,2023-02-15 15:35:01Z,u02, 78,100,movements,el-ex, lt, nd,281370.7980872917, -0.2434814122038304, -0.16970230242918588, 0.000657632842028693, -0.12571536004543304, -0.2009953260421753, 0.37943407893180847, -0.23761966824531555, 0.16888894140720367, -0.9565633535385132, 0.041757866740226746, 0.2946730852127075, 0.18715417385101318, -0.08408232863993184, -0.12103096481613147, 0.9890242128652156,0.010617190359231072,-0.1348114013671875,0.3982086181640625,-0.7675628662109375
20230215-1535,2023-02-15 15:35:01Z,u02, 79,100,movements,el-ex, lt, nd,281370.8081092917, -0.2444866510153087, -0.17185708521051335, 0.003044587100852936, -0.1791217029094696, -0.07171083986759186, 0.1842857301235199, -0.23849248886108398, 0.17101237177848816, -0.9559686779975891, -0.09079217910766602, 0.40909627079963684, 0.2225702404975891, -0.08499735545823718, -0.1216187322277183, 0.9888583848546025,0.011970507545236764,-0.25958251953125,0.5239105224609375,-0.7607269287109375
20230215-1535,2023-02-15 15:35:01Z,u02, 80,100,movements,el-ex, lt, nd,281370.81813229166, -0.2443880243591153, -0.17405140759893234, 0.0037996453742996333, -0.20502068102359772, 0.06120912730693817, 0.09144047647714615, -0.23830683529376984, 0.1731739491224289, -0.9556257724761963, -0.25392645597457886, 0.4837321639060974, 0.3118727207183838, -0.08603696698688194, -0.12159254887002204, 0.9887655763362775,0.012472691864244026,-0.4076690673828125,0.62451171875,-0.6846923828125
20230215-1535,2023-02-15 15:35:01Z,u02, 81,100,movements,el-ex, lt, nd,281370.8281552917, -0.24311671621448563, -0.17484012015293382, 0.0055677012261821255, 0.23625946044921875, 0.11699729412794113, 0.336144357919693, -0.23705878853797913, 0.1739507019519806, -0.9557951092720032, -0.4197099804878235, 0.4803309142589569, 0.3055570721626282, -0.08632787590234747, -0.12103694866722653, 0.9887970844906439,0.013339701104172307,-0.578277587890625,0.6743621826171875,-0.6206207275390625
20230215-1535,2023-02-15 15:35:01Z,u02, 82,100,movements,el-ex, lt, nd,281370.8381782917, -0.24122595954388973, -0.17121923930530267, 0.011866946900606357, 0.6388614773750305, 0.042643699795007706, 0.6521396040916443, -0.23540011048316956, 0.17038388550281525, -0.9568469524383545, -0.48179346323013306, 0.09844544529914856, 0.11836129426956177, -0.08417110336479507, -0.12038165548170711, 0.9890209315766029,0.016156616921176908,-0.7120819091796875,0.5301666259765625,-0.73760986328125
20230215-1535,2023-02-15 15:35:01Z,u02, 83,100,movements,el-ex, lt, nd,281370.8482002917, -0.23951233222631937, -0.16826629374176386, 0.019196416424602583, 0.25600412487983704, 0.07192755490541458, 0.5698636770248413, -0.23387843370437622, 0.16747337579727173, -0.9577335715293884, -0.3378836512565613, -0.41999107599258423, 0.03349345922470093, -0.08228558668344907, -0.11984284105777217, 0.9891841458115846,0.01953469056770274,-0.6635894775390625,-0.04046630859375,-0.90496826171875
20230215-1535,2023-02-15 15:35:01Z,u02, 84,100,movements,el-ex, lt, nd,281370.8582232917, -0.23728188490951824, -0.16774936445938318, 0.02471973782721976, 0.1711750030517578, 0.18319281935691833, 0.48408782482147217, -0.23176199197769165, 0.16696372628211975, -0.9583368301391602, -0.16792671382427216, -0.44334620237350464, 0.047402381896972656, -0.08172333305102283, -0.11896586110744764, 0.9892816396884995,0.02214477522482997,-0.4772186279296875,-0.31597900390625,-0.91644287109375
20230215-1535,2023-02-15 15:35:01Z,u02, 85,100,movements,el-ex, lt, nd,281370.8682462917, -0.23438199616098623, -0.16629005693734783, 0.03030372569436593, 0.3701916038990021, 0.1941346824169159, 0.5183469653129578, -0.2290382981300354, 0.16552473604679108, -0.9592408537864685, -0.0241813063621521, -0.23569990694522858, -0.041552603244781494, -0.08070474219520862, -0.11775530958615253, 0.9894494675171462,0.024704624529835392,-0.3282012939453125,-0.1919403076171875,-0.9335174560546875
20230215-1535,2023-02-15 15:35:01Z,u02, 86,100,movements,el-ex, lt, nd,281370.87827025, -0.23173738614539652, -0.16343629515762517, 0.036477127002173634, 0.4404478967189789, 0.12535296380519867, 0.529005765914917, -0.2266082465648651, 0.16270966827869415, -0.9602990746498108, 0.1251983493566513, 0.09922270476818085, -0.2163671851158142, -0.07896500746099411, -0.11668333407259075, 0.9896433113692615,0.02749013287367115,-0.1723785400390625,0.0862274169921875,-1.0910186767578125
20230215-1535,2023-02-15 15:35:01Z,u02, 87,100,movements,el-ex, lt, nd,281370.88829225, -0.22983321453655778, -0.16021468814286066, 0.04279625016906448, 0.4726402163505554, 0.055399443954229355, 0.5410435199737549, -0.22489750385284424, 0.1595301479101181, -0.9612342119216919, 0.20351995527744293, 0.3427891731262207, -0.3295525312423706, -0.07703016679252166, -0.11597086206034261, 0.9897955687204877,0.030360701429292727,-0.0492401123046875,0.4137115478515625,-1.2501983642578125
20230215-1535,2023-02-15 15:35:01Z,u02, 88,100,movements,el-ex, lt, nd,281370.89831525, -0.22840007292475054, -0.15736135162213702, 0.04930650040923912, 0.33865469694137573, 0.03431386500597, 0.577127993106842, -0.22362184524536133, 0.15671271085739136, -0.961995005607605, 0.18576480448246002, 0.27958184480667114, -0.28895103931427, -0.07526349987091006, -0.1154898273840809, 0.9898909783178413,0.0333682648968781,-0.0181121826171875,0.50579833984375,-1.2887420654296875
20230215-1535,2023-02-15 15:35:01Z,u02, 89,100,movements,el-ex, lt, nd,281370.90833825, -0.22677770975164013, -0.15669313276196006, 0.05554971355950631, 0.07591576129198074, 0.10603758692741394, 0.5928555727005005, -0.22208434343338013, 0.15605270862579346, -0.9624583721160889, 0.08934815227985382, 0.07809339463710785, -0.10838818550109863, -0.07460127823925967, -0.11491505785315592, 0.9899025425203626,0.03636043026381897,-0.0768280029296875,0.3329925537109375,-1.178009033203125
20230215-1535,2023-02-15 15:35:01Z,u02, 90,100,movements,el-ex, lt, nd,281370.91836025, -0.22412189004443503, -0.1579321038427341, 0.06166378400275801, -0.029869789257645607, 0.23295558989048004, 0.6351569294929504, -0.21948431432247162, 0.15727637708187103, -0.9628555178642273, -0.05018426477909088, -0.08308815956115723, 0.0893203616142273, -0.07491544081319991, -0.11384161011618811, 0.9898882946263259,0.03935532895752296,-0.20001220703125,0.14984130859375,-0.9610595703125
20230215-1535,2023-02-15 15:35:01Z,u02, 91,100,movements,el-ex, lt, nd,281370.92838325, -0.2200746971831972, -0.15974758363044395, 0.06783057356941224, -0.038303226232528687, 0.37998658418655396, 0.6193505525588989, -0.21552297472953796, 0.1590690165758133, -0.9634556770324707, -0.14374518394470215, -0.1898307353258133, 0.19570976495742798, -0.07554888717832983, -0.11209154641355434, 0.9899161240093157,0.04235326561596518,-0.325714111328125,0.0081024169921875,-0.8139190673828125
20230215-1535,2023-02-15 15:35:01Z,u02, 92,100,movements,el-ex, lt, nd,281370.93840625003, -0.21463807247442993, -0.16058984071089216, 0.07408957449615901, 0.1549893468618393, 0.5044025182723999, 0.6360872387886047, -0.2102532535791397, 0.1599004864692688, -0.9644819498062134, -0.1738409698009491, -0.1810796856880188, 0.2740980386734009, -0.07573820536478823, -0.10964833065339474, 0.9900453543631403,0.0452901057004339,-0.37579345703125,-0.035614013671875,-0.724822998046875
20230215-1535,2023-02-15 15:35:01Z,u02, 93,100,movements,el-ex, lt, nd,281370.94842925004, -0.2078957183862229, -0.15976824528583009, 0.08120036964179939, 0.29151320457458496, 0.6103294491767883, 0.6932762265205383, -0.20377269387245178, 0.15908940136432648, -0.966005802154541, -0.18695910274982452, -0.16763433814048767, 0.293459415435791, -0.07510493030040484, -0.10656612339606902, 0.990277357334581,0.04851440415594715,-0.3936614990234375,-0.012359619140625,-0.673126220703125
20230215-1535,2023-02-15 15:35:01Z,u02, 94,100,movements,el-ex, lt, nd,281370.95845125004, -0.2001999012342662, -0.15760035912740009, 0.08884587307547484, 0.4408928453922272, 0.6776552796363831, 0.6888530254364014, -0.19640065729618073, 0.1569487601518631, -0.9678811430931091, -0.16160103678703308, -0.1049620658159256, 0.26680082082748413, -0.07382325435925655, -0.10300274993045548, 0.9905786573899819,0.05190773489868485,-0.3756256103515625,0.0131072998046875,-0.6802215576171875
20230215-1535,2023-02-15 15:35:01Z,u02, 95,100,movements,el-ex, lt, nd,281370.96847425, -0.19218779678624148, -0.15394219981139018, 0.0965504083101822, 0.557887077331543, 0.6692116856575012, 0.6621290445327759, -0.1887480765581131, 0.15333490073680878, -0.9699807167053223, -0.12182930111885071, -0.002028748393058777, 0.15891504287719727, -0.07183488525132677, -0.09924411643868704, 0.9909271528710833,0.05526079573827638,-0.337982177734375,0.1016387939453125,-0.7434234619140625
20230215-1535,2023-02-15 15:35:01Z,u02, 96,100,movements,el-ex, lt, nd,281370.97849725, -0.1845873032473513, -0.1496492677621453, 0.10428660231969634, 0.5615829825401306, 0.6157172918319702, 0.6825928092002869, -0.1814895123243332, 0.14909133315086365, -0.9720253944396973, -0.03265233337879181, 0.10080185532569885, -0.017735958099365234, -0.06954545354617142, -0.09565950416419862, 0.9912491611404992,0.05863287980033768,-0.268768310546875,0.2030029296875,-0.8994903564453125
20230215-1535,2023-02-15 15:35:01Z,u02, 97,100,movements,el-ex, lt, nd,281370.98852025, -0.1773513724644622, -0.1457503679467884, 0.11224743134115947, 0.46800389885902405, 0.595172107219696, 0.7223823666572571, -0.1745525300502777, 0.1452348828315735, -0.9738779664039612, 0.0819469541311264, 0.12316720187664032, -0.12634176015853882, -0.06745593102383794, -0.09225360954854345, 0.9915011829032913,0.0621634845810795,-0.1528167724609375,0.2758941650390625,-1.062164306640625
20230215-1535,2023-02-15 15:35:01Z,u02, 98,100,movements,el-ex, lt, nd,281370.99854225, -0.17038666355432844, -0.14378879678018888, 0.120143930982783, 0.16029828786849976, 0.5684536695480347, 0.7390550971031189, -0.16781356930732727, 0.1432938277721405, -0.9753488898277283, 0.15592697262763977, 0.0561232715845108, -0.13442283868789673, -0.06634759315688185, -0.08901430527338346, 0.9916396924440543,0.06576480879820305,-0.0455322265625,0.236480712890625,-1.10809326171875
20230215-1535,2023-02-15 15:35:01Z,u02, 99,100,movements,el-ex, lt, nd,281371.00856525, -0.16387471008389867, -0.14527863834477237, 0.12743410119301934, -0.20777589082717896, 0.510678231716156, 0.7337584495544434, -0.16142360866069794, 0.1447681337594986, -0.976209282875061, 0.17245572805404663, 0.039191827178001404, -0.16536176204681396, -0.0669874958153607, -0.08606989057230983, 0.9916213767673546,0.06922091252285566,0.007171630859375,0.18011474609375,-1.120330810546875
20230215-1535,2023-02-15 15:35:01Z,u02, 100,100,movements,el-ex, lt, nd,281371.01858825004, -0.1580384077490579, -0.1495923151251588, 0.13455476451811513, -0.38831451535224915, 0.4539489448070526, 0.7990335822105408, -0.15562371909618378, 0.1490350067615509, -0.9765089750289917, 0.13088923692703247, 0.04704040288925171, -0.17926794290542603, -0.06903290331325558, -0.08354614647747917, 0.9914469708406075,0.07271482772420852,-0.000701904296875,0.1966400146484375,-1.1588287353515625
20230215-1535,2023-02-15 15:35:01Z,u02, 101,100,movements,el-ex, lt, nd,281371.02861125, -0.15260008044991907, -0.1551847411001137, 0.1421114957130677, -0.4793820381164551, 0.4012806713581085, 0.835085928440094, -0.1501818150281906, 0.15456262230873108, -0.9765018224716187, 0.0690050721168518, -0.001639053225517273, -0.14549219608306885, -0.07169852545849277, -0.08129212453759868, 0.9911625203365735,0.07647014189746872,-0.056610107421875,0.175628662109375,-1.1344146728515625
20230215-1535,2023-02-15 15:35:01Z,u02, 102,100,movements,el-ex, lt, nd,281371.03863325, -0.14758781766896575, -0.16107357083196416, 0.14976466918578782, -0.4334009885787964, 0.36262011528015137, 0.8345822691917419, -0.1451491117477417, 0.16037797927856445, -0.9763250946998596, 0.029395952820777893, 0.01534225046634674, -0.11846250295639038, -0.07450815637338043, -0.0792842930208982, 0.9908165502815892,0.08028162703290632,-0.101409912109375,0.1539154052734375,-1.1153564453125
20230215-1535,2023-02-15 15:35:01Z,u02, 103,100,movements,el-ex, lt, nd,281371.04865625, -0.1425701662839887, -0.16565112683601313, 0.15773350288678592, -0.22800330817699432, 0.38094958662986755, 0.8492072224617004, -0.14014266431331635, 0.16489458084106445, -0.9763041734695435, -0.00023819506168365479, 0.04587507247924805, -0.03741347789764404, -0.07667207799164158, -0.0772613326568895, 0.9904867964890295,0.08418970603744012,-0.1290435791015625,0.1994476318359375,-1.055572509765625
20230215-1535,2023-02-15 15:35:01Z,u02, 104,100,movements,el-ex, lt, nd,281371.05867925, -0.13718918448461573, -0.1678799011270448, 0.16612892828888146, 0.027804501354694366, 0.4087255597114563, 0.8447706699371338, -0.1348365843296051, 0.167092427611351, -0.976677656173706, -0.017949655652046204, 0.05756270885467529, 0.021294355392456055, -0.07768911310495746, -0.07500388047916336, 0.9902312366436578,0.08820917054588784,-0.146453857421875,0.2171783447265625,-0.980133056640625
20230215-1535,2023-02-15 15:35:01Z,u02, 105,100,movements,el-ex, lt, nd,281371.06870225, -0.13151723367094215, -0.1672409463744844, 0.17480616714653008, 0.3263348340988159, 0.42561399936676025, 0.8231151103973389, -0.1293087601661682, 0.16646242141723633, -0.9775323271751404, -0.03347198665142059, 0.047313183546066284, 0.09639835357666016, -0.07730839172305431, -0.07250680128885353, 0.9900772577996995,0.09226628503235794,-0.156982421875,0.23004150390625,-0.9124603271484375
20230215-1535,2023-02-15 15:35:01Z,u02, 106,100,movements,el-ex, lt, nd,281371.07872425, -0.1258133462591654, -0.16418273692852867, 0.1833455139534078, 0.4792274534702301, 0.4319014549255371, 0.7628030776977539, -0.12379425019025803, 0.1634461134672165, -0.9787545204162598, -0.041336365044116974, -0.02079169452190399, 0.06302881240844727, -0.07575779026619732, -0.069882118716229, 0.9900126678820111,0.09618890404413065,-0.1658477783203125,0.1798553466796875,-0.890167236328125
20230215-1535,2023-02-15 15:35:01Z,u02, 107,100,movements,el-ex, lt, nd,281371.08874725003, -0.12009131526973162, -0.1598826726396371, 0.19139132460741387, 0.5649654865264893, 0.4477802813053131, 0.7035242915153503, -0.11827489733695984, 0.15920238196849823, -0.9801355004310608, -0.032375119626522064, -0.06389600038528442, 0.050097107887268066, -0.07363200737592235, -0.06716073315012126, 0.9899995395427752,0.09984308778454723,-0.1598968505859375,0.11395263671875,-0.9288482666015625
20230215-1535,2023-02-15 15:35:01Z,u02, 108,100,movements,el-ex, lt, nd,281371.09877025004, -0.11456570889880154, -0.154890977076699, 0.19879342750373735, 0.5943308472633362, 0.4164290130138397, 0.6267895698547363, -0.11294671148061752, 0.15427237749099731, -0.9815513491630554, -0.004240773618221283, -0.05763848125934601, 0.03411787748336792, -0.07119573021698626, -0.0644630792145089, 0.9900148033351709,0.10318099082827233,-0.135406494140625,0.089874267578125,-0.9334869384765625
20230215-1535,2023-02-15 15:35:01Z,u02, 109,100,movements,el-ex, lt, nd,281371.10879225004, -0.1096168203897694, -0.14964214118053012, 0.2055972100822348, 0.5948777794837952, 0.35837075114250183, 0.5947490334510803, -0.10817486047744751, 0.14908428490161896, -0.9828896522521973, 0.02718120813369751, -0.0045530349016189575, -0.021810054779052734, -0.06863923490307959, -0.061998600449291924, 0.9900281828110815,0.10625020859326,-0.0980224609375,0.11871337890625,-0.97796630859375
20230215-1535,2023-02-15 15:35:01Z,u02, 110,100,movements,el-ex, lt, nd,281371.11881525, -0.10534179423722408, -0.14433618350832572, 0.21206202730087784, 0.6022241115570068, 0.300190269947052, 0.559443473815918, -0.10405371338129044, 0.14383554458618164, -0.9841158986091614, 0.03152870386838913, 0.020135387778282166, -0.013366341590881348, -0.06604387528095858, -0.059835131066785806, 0.9900184170412062,0.1091853701126734,-0.0730133056640625,0.1588287353515625,-1.006317138671875
20230215-1535,2023-02-15 15:35:01Z,u02, 111,100,movements,el-ex, lt, nd,281371.12883825, -0.10173649289470964, -0.13887126612797135, 0.21810885256709894, 0.6015151143074036, 0.25131648778915405, 0.5154763460159302, -0.10058334469795227, 0.1384253352880478, -0.9852519631385803, 0.0046208202838897705, 0.016252994537353516, -0.0013660788536071777, -0.06335779087133463, -0.05796388446200757, 0.9899974199835644,0.11194243430845108,-0.0812225341796875,0.1616668701171875,-0.991455078125
20230215-1535,2023-02-15 15:35:01Z,u02, 112,100,movements,el-ex, lt, nd,281371.13886125, -0.09844159160473634, -0.13334246266864952, 0.22381289147543681, 0.6243512034416199, 0.2491806298494339, 0.4957277178764343, -0.09741022437810898, 0.1329476684331894, -0.9863245487213135, -0.027666062116622925, 0.020982995629310608, 0.03547310829162598, -0.06064274090552545, -0.056215400076418544, 0.9899702866605832,0.11454732785707668,-0.1118927001953125,0.1493072509765625,-0.9692840576171875
20230215-1535,2023-02-15 15:35:01Z,u02, 113,100,movements,el-ex, lt, nd,281371.14888325, -0.09519382198615219, -0.1270985487180696, 0.22946292851587288, 0.7228192090988159, 0.25304779410362244, 0.4969134032726288, -0.09428342431783676, 0.12675663828849792, -0.9874428510665894, -0.048599861562252045, 0.03991509974002838, 0.04350370168685913, -0.057581704245232616, -0.054432717584249765, 0.9899514755017863,0.11712116240610503,-0.13543701171875,0.164031982421875,-0.9445648193359375
20230215-1535,2023-02-15 15:35:01Z,u02, 114,100,movements,el-ex, lt, nd,281371.15890625, -0.09208090709481268, -0.12031863589061094, 0.23527630901380864, 0.732606053352356, 0.21930421888828278, 0.5243777632713318, -0.0912860706448555, 0.1200285479426384, -0.9885646104812622, -0.051505669951438904, 0.052182137966156006, 0.010659337043762207, -0.054252281937000976, -0.052672397702447075, 0.9899168884877201,0.11977853642385455,-0.1454925537109375,0.166046142578125,-0.9509429931640625
20230215-1535,2023-02-15 15:35:01Z,u02, 115,100,movements,el-ex, lt, nd,281371.16892925004, -0.08935418760790359, -0.11340173264224694, 0.2413591741476731, 0.7475965619087219, 0.18341386318206787, 0.5463947653770447, -0.08866216242313385, 0.11315882951021194, -0.9896131157875061, -0.021170593798160553, 0.05796848237514496, -0.059825360774993896, -0.05083408434420749, -0.05108172961498941, 0.9898379549390596,0.12258609851452323,-0.1307525634765625,0.1778564453125,-1.018798828125
20230215-1535,2023-02-15 15:35:01Z,u02, 116,100,movements,el-ex, lt, nd,281371.17895225, -0.08698266932857682, -0.10691757436942693, 0.24736386833970195, 0.6425601243972778, 0.15257978439331055, 0.518207311630249, -0.08637695759534836, 0.10671398788690567, -0.9905307292938232, 0.029507465660572052, 0.027944818139076233, -0.10921591520309448, -0.04761898507021616, -0.04966954085295297, 0.9897197587847381,0.1253795320829245,-0.0845489501953125,0.1514739990234375,-1.068115234375
20230215-1535,2023-02-15 15:35:01Z,u02, 117,100,movements,el-ex, lt, nd,281371.18897425, -0.08501967933700315, -0.10152197825195758, 0.2529120200045994, 0.5235658884048462, 0.12592367827892303, 0.48980414867401123, -0.08448005467653275, 0.1013476774096489, -0.9912576675415039, 0.07738472521305084, 0.031022317707538605, -0.2020406723022461, -0.04493578383277772, -0.048496812468412295, 0.9895702598602156,0.12798206659089026,-0.0290374755859375,0.1325531005859375,-1.15167236328125
20230215-1535,2023-02-15 15:35:01Z,u02, 118,100,movements,el-ex, lt, nd,281371.19899725, -0.08315573378523247, -0.0974492638069769, 0.25813904877482113, 0.37638628482818604, 0.1450856477022171, 0.47009727358818054, -0.08266586065292358, 0.09729509800672531, -0.991816520690918, 0.11535019427537918, -0.008946716785430908, -0.15967273712158203, -0.04291482979360226, -0.04743474920315874, 0.9893884905500306,0.1304552501722471,0.0146636962890625,0.11737060546875,-1.1966094970703125
20230215-1535,2023-02-15 15:35:01Z,u02, 119,100,movements,el-ex, lt, nd,281371.20902025, -0.08104729399615657, -0.09507238665475252, 0.26275327836691964, 0.17579945921897888, 0.17669497430324554, 0.392954558134079, -0.08059298992156982, 0.09492922574281693, -0.9922162890434265, 0.12034214287996292, -0.07574894279241562, -0.04664778709411621, -0.041769018536037684, -0.04633781238560681, 0.9891973954285398,0.1326521399880406,0.04144287109375,0.0522613525390625,-1.0888519287109375
20230215-1535,2023-02-15 15:35:01Z,u02, 120,100,movements,el-ex, lt, nd,281371.21904325, -0.07868564765608713, -0.09433037519343948, 0.26641758562084505, 0.06781946867704391, 0.2082984447479248, 0.3289041817188263, -0.07825501263141632, 0.09419054538011551, -0.992473840713501, 0.07706483453512192, -0.08096117526292801, 0.0028345584869384766, -0.04147568382321102, -0.04519795065043493, 0.9890262049920484,0.1344028380042331,0.0244903564453125,0.00634765625,-1.010101318359375
20230215-1535,2023-02-15 15:35:01Z,u02, 121,100,movements,el-ex, lt, nd,281371.22906525, -0.07607130956982132, -0.09377259732698609, 0.26964571435589735, 0.12309218943119049, 0.23686671257019043, 0.29410481452941895, -0.07566407322883606, 0.09363523125648499, -0.9927272796630859, 0.00966981053352356, -0.08368650078773499, 0.06290245056152344, -0.04130449541101601, -0.043935333730895525, 0.988880725646652,0.1359360394390226,-0.0327911376953125,0.0194549560546875,-0.9624176025390625
20230215-1535,2023-02-15 15:35:01Z,u02, 122,100,movements,el-ex, lt, nd,281371.23908825003, -0.0732755562141833, -0.09208011128151489, 0.2724211560428696, 0.2568571865558624, 0.25556716322898865, 0.22767706215381622, -0.07289985567331314, 0.09195004403591156, -0.9930915236473083, -0.04556937515735626, -0.10246334969997406, 0.13505929708480835, -0.04059825171992904, -0.04249721594052955, 0.988794785126683,0.13722506691113967,-0.09454345703125,-0.002227783203125,-0.896026611328125
20230215-1535,2023-02-15 15:35:01Z,u02, 123,100,movements,el-ex, lt, nd,281371.24911125004, -0.0703238480916946, -0.08901637130287654, 0.27476683697291476, 0.39614975452423096, 0.28485047817230225, 0.20078729093074799, -0.0699876919388771, 0.08889885991811752, -0.9935787320137024, -0.0932355672121048, -0.08767815679311752, 0.1973598599433899, -0.03923729480827747, -0.040878644944981786, 0.9887708737382375,0.1382808757571683,-0.140625,-0.0098724365234375,-0.8203125
20230215-1535,2023-02-15 15:35:01Z,u02, 124,100,movements,el-ex, lt, nd,281371.25913325005, -0.06706313690408126, -0.08473483117460018, 0.2772234884419273, 0.47868219017982483, 0.31242936849594116, 0.2338496297597885, -0.0667724460363388, 0.084633469581604, -0.9941723346710205, -0.1123809888958931, -0.050072312355041504, 0.202012300491333, -0.037296951019778604, -0.03902273239782281, 0.9887676017178922,0.13937305322178412,-0.17926025390625,0.017852783203125,-0.789703369140625
20230215-1535,2023-02-15 15:35:01Z,u02, 125,100,movements,el-ex, lt, nd,281371.26915625, -0.06394608876109303, -0.07970432243952331, 0.2798678406559612, 0.5671554803848267, 0.25665533542633057, 0.21180662512779236, -0.0636996477842331, 0.07961995899677277, -0.9947879314422607, -0.05505950748920441, 0.006912633776664734, 0.13643527030944824, -0.0349767817151567, -0.037184165440711014, 0.9887555774722672,0.1405569071366326,-0.16015625,0.05792236328125,-0.808685302734375
20230215-1535,2023-02-15 15:35:01Z,u02, 126,100,movements,el-ex, lt, nd,281371.27917925, -0.06150845019420342, -0.07382660203974567, 0.28187407019472244, 0.6086267232894897, 0.2009822130203247, 0.11500576883554459, -0.06130223348736763, 0.07375955581665039, -0.9953901767730713, 0.04833226650953293, 0.02438497543334961, -0.012025594711303711, -0.03220526961886625, -0.035605367734978494, 0.988783081973494,0.14143239873326344,-0.0634613037109375,0.101470947265625,-0.934234619140625
20230215-1535,2023-02-15 15:35:01Z,u02, 127,100,movements,el-ex, lt, nd,281371.28920225, -0.059537085512136066, -0.06812994194327675, 0.28322766141582834, 0.5437131524085999, 0.17126639187335968, 0.09555239230394363, -0.05936387553811073, 0.06807725131511688, -0.9959123730659485, 0.08206896483898163, -0.005424663424491882, -0.043241679668426514, -0.02950399996940447, -0.03425400113942925, 0.9888337231727029,0.14200016407749835,0.015594482421875,0.0834197998046875,-1.04571533203125
20230215-1535,2023-02-15 15:35:01Z,u02, 128,100,movements,el-ex, lt, nd,281371.29922425, -0.05782394641959643, -0.06325047743507908, 0.28444301934875715, 0.42893359065055847, 0.15271428227424622, 0.08225150406360626, -0.05767616629600525, 0.06320831179618835, -0.9963323473930359, 0.06693825870752335, -0.061865538358688354, 0.02079218626022339, -0.027192198651101243, -0.033081787326189944, 0.9888655898040524,0.1425172877084561,0.0154266357421875,0.03558349609375,-1.0078125
20230215-1535,2023-02-15 15:35:01Z,u02, 129,100,movements,el-ex, lt, nd,281371.30924725, -0.056258051473537546, -0.059779621804514085, 0.28519979902305004, 0.28533273935317993, 0.14948146045207977, 0.02778724953532219, -0.056127943098545074, 0.05974402278661728, -0.9966344833374023, 0.04582826793193817, -0.08313575387001038, 0.08441829681396484, -0.02557501395115813, -0.03207294550221661, 0.9888968669057192,0.14282943011899163,0.0016326904296875,-0.02398681640625,-0.9416656494140625
20230215-1535,2023-02-15 15:35:01Z,u02, 130,100,movements,el-ex, lt, nd,281371.31927025004, -0.05483059147529398, -0.05684974790101127, 0.2856178396627569, 0.31166234612464905, 0.12407410889863968, 0.02689269371330738, -0.05471458658576012, 0.0568191297352314, -0.9968841075897217, 0.0010036565363407135, -0.027537517249584198, 0.09472346305847168, -0.02422136217904527, -0.031165327449937448, 0.9889376304063684,0.14298418278907643,-0.0291900634765625,0.0028839111328125,-0.89654541015625
20230215-1535,2023-02-15 15:35:01Z,u02, 131,100,movements,el-ex, lt, nd,281371.32929325, -0.05390506797087151, -0.054090258043087376, 0.2861007582622339, 0.22657904028892517, 0.04735296964645386, 0.04250606149435043, -0.05380016565322876, 0.054063886404037476, -0.9970870614051819, -0.035067010670900345, -0.013246633112430573, 0.04382479190826416, -0.02291533457208983, -0.030518013405532906, 0.9889605225431616,0.1431804138676084,-0.075927734375,0.0365447998046875,-0.9280853271484375
20230215-1535,2023-02-15 15:35:01Z,u02, 132,100,movements,el-ex, lt, nd,281371.33931525, -0.05391007912334359, -0.05273844384989459, 0.2868158725832276, 0.04164939746260643, -0.058560147881507874, 0.08751881122589111, -0.05380905047059059, 0.05271400138735771, -0.9971588850021362, -0.03672133386135101, 0.018346179276704788, 0.0056885480880737305, -0.02223550543789274, -0.030432636917642985, 0.9889296007990895,0.14351863351433328,-0.0952301025390625,0.056671142578125,-0.972381591796875
20230215-1535,2023-02-15 15:35:01Z,u02, 133,100,movements,el-ex, lt, nd,281371.34933825, -0.05494130974767427, -0.05379166474430656, 0.2876466395757452, -0.24615442752838135, -0.16205085813999176, 0.07779033482074738, -0.05483424663543701, 0.05376572534441948, -0.9970468878746033, -0.00400364026427269, -0.009301617741584778, -0.05117088556289673, -0.022669494323360566, -0.031026784650788092, 0.9888381248420262,0.1439531466839787,-0.077392578125,0.065338134765625,-1.0187225341796875
20230215-1535,2023-02-15 15:35:01Z,u02, 134,100,movements,el-ex, lt, nd,281371.35936125, -0.05724026401710703, -0.05696892061172659, 0.2879658146881501, -0.3469334840774536, -0.3057861924171448, 0.02335958555340767, -0.057116203010082245, 0.056938111782073975, -0.9967426061630249, 0.03601330518722534, -0.057014405727386475, -0.1084514856338501, -0.024069998116136075, -0.032393519083857486, 0.9887288421025526,0.1441755651028842,-0.0395355224609375,0.02398681640625,-1.0766754150390625
20230215-1535,2023-02-15 15:35:01Z,u02, 135,100,movements,el-ex, lt, nd,281371.36938425, -0.06083088334823346, -0.05945088137920889, 0.2885609944295459, -0.07352786511182785, -0.4175718426704407, 0.13680778443813324, -0.06068596988916397, 0.05941586568951607, -0.9963869452476501, 0.09785638749599457, -0.11665158718824387, -0.15755897760391235, -0.025028106362612337, -0.03435280828867039, 0.9885849919103358,0.1445448975704974,0.0050048828125,-0.0297698974609375,-1.1365814208984375
20230215-1535,2023-02-15 15:35:01Z,u02, 136,100,movements,el-ex, lt, nd,281371.37940625, -0.0658183733048138, -0.05924652513298922, 0.2898122031306681, 0.05704132840037346, -0.5955091118812561, 0.08615367859601974, -0.06565546244382858, 0.05921186879277229, -0.9960839748382568, 0.15852046012878418, -0.1887437403202057, -0.1651098132133484, -0.02454351104065084, -0.03681876430925392, 0.9884090042283568,0.1452223627643191,0.066864013671875,-0.0878143310546875,-1.1624603271484375
20230215-1535,2023-02-15 15:35:01Z,u02, 137,100,movements,el-ex, lt, nd,281371.38942925003, -0.07219638989105155, -0.058151324930824026, 0.29025027605883785, 0.19904588162899017, -0.6667947173118591, -0.005158183164894581, -0.07201176136732101, 0.0581185556948185, -0.9957090616226196, 0.2136285901069641, -0.043149687349796295, -0.19275224208831787, -0.023530173693978113, -0.03989735369887611, 0.9882735497046162,0.14549912427885264,0.116668701171875,-0.1037445068359375,-1.1607818603515625
20230215-1535,2023-02-15 15:35:01Z,u02, 138,100,movements,el-ex, lt, nd,281371.39945225004, -0.07868160962872049, -0.055298999436022574, 0.29024671770472965, 0.3503677248954773, -0.633249044418335, -0.019279062747955322, -0.0784803032875061, 0.05527082085609436, -0.9953823089599609, 0.2310224175453186, 0.11849626898765564, -0.22056007385253906, -0.02164858880699774, -0.04289725559975699, 0.9881873324883781,0.14552326545718328,0.160919189453125,0.12451171875,-1.212921142578125
20230215-1535,2023-02-15 15:35:01Z,u02, 139,100,movements,el-ex, lt, nd,281371.40947525, -0.08467551248641163, -0.05112402965825074, 0.2909063788797151, 0.47403842210769653, -0.5939705967903137, 0.08346957713365555, -0.08446386456489563, 0.05110176280140877, -0.9951152801513672, 0.13292577862739563, 0.20396414399147034, -0.13440126180648804, -0.019134038666152747, -0.04556574416064496, 0.9880739506736023,0.14583402801432666,0.109893798828125,0.2117462158203125,-1.1956329345703125
20230215-1535,2023-02-15 15:35:01Z,u02, 140,100,movements,el-ex, lt, nd,281371.41949725, -0.09013895760955395, -0.04656398981124624, 0.2920907636337218, 0.4395323693752289, -0.539556622505188, 0.04643299803137779, -0.08991937339305878, 0.046547163277864456, -0.9948607087135315, 0.03604060411453247, 0.16912055015563965, 0.06204521656036377, -0.01645385513954359, -0.04794691902754232, 0.9879291177946141,0.14637728577396086,-0.00750732421875,0.2550811767578125,-1.0346832275390625
20230215-1535,2023-02-15 15:35:01Z,u02, 141,100,movements,el-ex, lt, nd,281371.42952025, -0.09514419462133222, -0.042315609486987905, 0.292479587597807, 0.4072452187538147, -0.4989638924598694, -0.04957965761423111, -0.09491567313671112, 0.04230298101902008, -0.9945861101150513, -0.03463144600391388, 0.12963305413722992, 0.23611748218536377, -0.013978727454291495, -0.05011541235111538, 0.9878389477811206,0.14651699571529045,-0.09344482421875,0.18414306640625,-0.83819580078125
20230215-1535,2023-02-15 15:35:01Z,u02, 142,100,movements,el-ex, lt, nd,281371.43954325, -0.10007529330150086, -0.038208509652886864, 0.29205713064406774, 0.4110404849052429, -0.49924272298812866, -0.106586754322052, -0.09983541816473007, 0.03819921240210533, -0.9942704439163208, -0.07193277031183243, 0.10318872332572937, 0.2399216890335083, -0.011599500387477195, -0.052251613944506545, 0.9877990971006544,0.1462467898475158,-0.15673828125,0.1556243896484375,-0.7263031005859375
20230215-1535,2023-02-15 15:35:01Z,u02, 143,100,movements,el-ex, lt, nd,281371.44956525, -0.10510695847097759, -0.033757188027645574, 0.29155025929329526, 0.4576907157897949, -0.5100381374359131, -0.07702364027500153, -0.10485376417636871, 0.03375077620148659, -0.993914783000946, -0.11154637485742569, 0.06523298472166061, 0.12420958280563354, -0.009046439664633605, -0.05441301804429791, 0.9877580678868844,0.14591535365654734,-0.186981201171875,0.1310577392578125,-0.8160858154296875
20230215-1535,2023-02-15 15:35:01Z,u02, 144,100,movements,el-ex, lt, nd,281371.45958825, -0.11031391125702142, -0.02914828826653343, 0.2914900896490224, 0.46397948265075684, -0.5344960689544678, -0.03395712748169899, -0.11004354804754257, 0.029144160449504852, -0.9934993982315063, -0.19784829020500183, -0.03694140538573265, 0.07824671268463135, -0.006391677446303585, -0.056652028856348347, 0.9876716737323051,0.14578827753125898,-0.262847900390625,0.0434417724609375,-0.9053192138671875
20230215-1535,2023-02-15 15:35:01Z,u02, 145,100,movements,el-ex, lt, nd,281371.46961125004, -0.11569986385421308, -0.02418998169514115, 0.2917417597406769, 0.5341901779174805, -0.5457577705383301, -0.030566100031137466, -0.11540812999010086, 0.024187622591853142, -0.9930236339569092, -0.21378499269485474, -0.05954223871231079, 0.10897517204284668, -0.0035428065590789645, -0.05895452140982758, 0.9875506715176362,0.145792215856742,-0.3328704833984375,-0.0327301025390625,-0.905548095703125
20230215-1535,2023-02-15 15:35:02Z,u02, 146,100,movements,el-ex, lt, nd,281371.47963425, -0.12094279502212173, -0.01838770119562445, 0.29191355313293865, 0.6094175577163696, -0.5040215253829956, -0.0785067230463028, -0.12062777578830719, 0.018386665731668472, -0.9925275444984436, -0.12590846419334412, -0.03662092238664627, 0.1211591362953186, -0.00029016433399451795, -0.06112411967879477, 0.9874362013788327,0.1457168430495564,-0.2976531982421875,-0.029754638671875,-0.8696746826171875
20230215-1535,2023-02-15 15:35:02Z,u02, 147,100,movements,el-ex, lt, nd,281371.48965625, -0.12570775458316508, -0.012148071497366198, 0.2916095948561741, 0.597144365310669, -0.45577940344810486, -0.13488513231277466, -0.1253676861524582, 0.012147773057222366, -0.992035984992981, -0.012815907597541809, 0.013242850080132484, 0.10533249378204346, 0.003128097435335124, -0.06302560815502217, 0.9873619828351461,0.14537663511128573,-0.1868133544921875,0.0063629150390625,-0.88299560546875
20230215-1535,2023-02-15 15:35:02Z,u02, 148,100,movements,el-ex, lt, nd,281371.49967925, -0.13015385132152668, -0.006270694000322787, 0.29083783758763043, 0.5606151223182678, -0.4305209219455719, -0.16884122788906097, -0.12978413701057434, 0.00627065310254693, -0.9915224313735962, 0.025093600153923035, -0.009902246296405792, 0.12250387668609619, 0.006327716011788416, -0.06479767671943011, 0.9873164171433146,0.1448012464162286,-0.1136474609375,0.0217132568359375,-0.8780670166015625
20230215-1535,2023-02-15 15:35:02Z,u02, 149,100,movements,el-ex, lt, nd,281371.50970225, -0.13421563671017445, -0.0003063990754162797, 0.28956980899787405, 0.5922412276268005, -0.38310307264328003, -0.23915445804595947, -0.1338130384683609, 0.00030639907345175743, -0.9910065531730652, 0.0327388197183609, -0.0652783215045929, 0.15329903364181519, 0.009523767706399445, -0.06637788950969208, 0.9873081180626565,0.14396499763655315,-0.1008758544921875,-0.036224365234375,-0.855743408203125
20230215-1535,2023-02-15 15:35:02Z,u02, 150,100,movements,el-ex, lt, nd,281371.51972525, -0.13799562393500536, 0.006083744087785052, 0.2876402975745716, 0.6084699630737305, -0.37992221117019653, -0.31208938360214233, -0.13755552470684052, -0.006083706393837929, -0.9904753565788269, 0.001431882381439209, -0.08740689605474472, 0.17219233512878418, 0.012884513269442024, -0.06779604152691583, 0.9873462557450814,0.14277563167425583,-0.1110076904296875,-0.082061767578125,-0.823822021484375
20230215-1535,2023-02-15 15:35:02Z,u02, 151,100,movements,el-ex, lt, nd,281371.52974725, -0.1419165088621829, 0.0127589659146776, 0.2850812091374708, 0.6377954483032227, -0.4092302918434143, -0.3765163719654083, -0.1414290964603424, -0.012758620083332062, -0.9898661375045776, -0.044987499713897705, -0.09065019339323044, 0.1287211775779724, 0.016370406419708904, -0.06927428944028434, 0.9874114381301525,0.14125033621080993,-0.16302490234375,-0.1014862060546875,-0.831268310546875
20230215-1535,2023-02-15 15:35:02Z,u02, 152,100,movements,el-ex, lt, nd,281371.53977025003, -0.14607321919257263, 0.019634564690740677, 0.28207258980050903, 0.630302906036377, -0.42939573526382446, -0.4108980596065521, -0.1455262452363968, -0.019633302465081215, -0.9891595840454102, -0.05302110314369202, -0.06982897967100143, 0.06914615631103516, 0.019950813340247536, -0.07086735715481382, 0.9874844850007813,0.13947842085182474,-0.1969451904296875,-0.1013336181640625,-0.89678955078125
20230215-1535,2023-02-15 15:35:02Z,u02, 153,100,movements,el-ex, lt, nd,281371.54979325004, -0.1503994669800193, 0.026336208100108855, 0.27872961169676125, 0.5785104632377625, -0.4485473334789276, -0.449245423078537, -0.14978113770484924, -0.026333164423704147, -0.9883684515953064, -0.03161533176898956, -0.024249723181128502, 0.0916551947593689, 0.023438759037032752, -0.07256999935994095, 0.9875574449699839,0.13752982219647575,-0.19097900390625,-0.0680389404296875,-0.920562744140625
20230215-1535,2023-02-15 15:35:02Z,u02, 154,100,movements,el-ex, lt, nd,281371.55981625, -0.15477411985983613, 0.031978605979533004, 0.2747988980605599, 0.4163942337036133, -0.44511452317237854, -0.4963418245315552, -0.15407811105251312, -0.031973157078027725, -0.9875411987304688, -0.008366942405700684, -0.016183577477931976, 0.16309362649917603, 0.02637812192695067, -0.07438808080084931, 0.9876539084080584,0.13531572764885672,-0.17181396484375,-0.04669189453125,-0.8607025146484375
20230215-1535,2023-02-15 15:35:02Z,u02, 155,100,movements,el-ex, lt, nd,281371.56983825, -0.15894262780519347, 0.036130722030393074, 0.2702515629818584, 0.24384966492652893, -0.4200435280799866, -0.5392641425132751, -0.15817095339298248, -0.03612286224961281, -0.9867507815361023, 0.006513863801956177, -0.04422992467880249, 0.2347061038017273, 0.028536181543164802, -0.07622532741693505, 0.9877889425123918,0.13284683935374397,-0.15362548828125,-0.0548553466796875,-0.78741455078125
20230215-1535,2023-02-15 15:35:02Z,u02, 156,100,movements,el-ex, lt, nd,281371.57986125, -0.1627448411353423, 0.038158814450991466, 0.26477623844828063, -0.013940606266260147, -0.3804228603839874, -0.5950770974159241, -0.16190943121910095, -0.038149554282426834, -0.9860679507255554, -0.005052223801612854, -0.12165574729442596, 0.33172523975372314, 0.02957622824653162, -0.07804669166036425, 0.9879943995362859,0.13000385188872862,-0.1553497314453125,-0.1235198974609375,-0.7072601318359375
20230215-1535,2023-02-15 15:35:02Z,u02, 157,100,movements,el-ex, lt, nd,281371.58988425, -0.16602800263136241, 0.037723907630727506, 0.2586352140133025, -0.2606995105743408, -0.32354679703712463, -0.5954120755195618, -0.16514870524406433, -0.03771496191620827, -0.9855473041534424, -0.05386069416999817, -0.17053699493408203, 0.4014256000518799, 0.02933002356732096, -0.07978783013685381, 0.9882610964634556,0.12693967010523377,-0.1890106201171875,-0.1835174560546875,-0.6112060546875
20230215-1535,2023-02-15 15:35:02Z,u02, 158,100,movements,el-ex, lt, nd,281371.59990725, -0.168717011257267, 0.03532371719808472, 0.252597649010189, -0.3850398361682892, -0.23882046341896057, -0.4635445475578308, -0.16781297326087952, -0.03531637042760849, -0.9851860404014587, -0.09036572277545929, -0.2199479043483734, 0.38173145055770874, 0.028069788689817514, -0.08135760237429934, 0.9885404362260967,0.1240195754100867,-0.244232177734375,-0.235076904296875,-0.5945587158203125
20230215-1535,2023-02-15 15:35:02Z,u02, 159,100,movements,el-ex, lt, nd,281371.60992925003, -0.17119422726372494, 0.034781839070466884, 0.24881648730214936, -0.004169068764895201, -0.2769388258457184, -0.27877914905548096, -0.17025619745254517, -0.03477482497692108, -0.9847860336303711, -0.05938856303691864, -0.24996943771839142, 0.3216543197631836, 0.027799429868927313, -0.08266905717494263, 0.9886733960393339,0.12213933307882756,-0.260894775390625,-0.269256591796875,-0.6194000244140625
20230215-1535,2023-02-15 15:35:02Z,u02, 160,100,movements,el-ex, lt, nd,281371.61995225004, -0.17492192318490526, 0.03135874572919629, 0.24402528281916616, -0.7043743133544922, -0.5568162798881531, -0.5773841738700867, -0.17394569516181946, -0.03135360777378082, -0.9842559695243835, 0.16877296566963196, -0.13978897035121918, -0.14515382051467896, 0.0261326977644379, -0.08478849037503075, 0.9888170123899901,0.11987066719168253,-0.1455535888671875,-0.324737548828125,-0.755584716796875
20230215-1535,2023-02-15 15:35:02Z,u02, 161,100,movements,el-ex, lt, nd,281371.62997525, -0.1808667441795198, 0.027836623341965266, 0.23676041413549564, -0.22925697267055511, -0.5966561436653137, -0.7064878344535828, -0.17981255054473877, -0.02783302776515484, -0.9833070635795593, 0.33821403980255127, 0.5645151734352112, -0.6855619549751282, 0.024428931320471366, -0.08803238044113845, 0.9889961449776881,0.11636178197050125,0.1307220458984375,0.2645263671875,-1.524383544921875
20230215-1535,2023-02-15 15:35:02Z,u02, 162,100,movements,el-ex, lt, nd,281371.63999725, -0.1858146874815866, 0.028679001571763008, 0.23040014750558307, 0.16948536038398743, -0.4220869541168213, -0.5298169255256653, -0.1846712827682495, -0.02867507003247738, -0.9823819398880005, 0.1593417078256607, 0.4910774230957031, -0.711450457572937, 0.024845358165654828, -0.0905082489635903, 0.9891388421749843,0.11311646983504477,0.0722503662109375,0.5009765625,-1.721588134765625
20230215-1535,2023-02-15 15:35:02Z,u02, 163,100,movements,el-ex, lt, nd,281371.65002025, -0.18925063169690956, 0.03274943307858436, 0.22669160766637178, 0.4328104555606842, -0.31146004796028137, -0.38287267088890076, -0.18802209198474884, -0.032743580639362335, -0.9816188216209412, 0.006671398878097534, 0.46458256244659424, -0.16791725158691406, 0.026881169009341583, -0.09202163057977382, 0.9891807160777908,0.11104502603185337,-0.1064453125,0.485870361328125,-1.4627685546875
20230215-1535,2023-02-15 15:35:02Z,u02, 164,100,movements,el-ex, lt, nd,281371.66004325, -0.1924341455726423, 0.03723429809931205, 0.2234878649600499, 0.3096690773963928, -0.35545921325683594, -0.4249489903450012, -0.1911161243915558, -0.037225693464279175, -0.9808613061904907, -0.038757532835006714, 0.18418309092521667, 0.06270945072174072, 0.029125305368071924, -0.09338666051915523, 0.9891947829702251,0.1091992421475393,-0.22918701171875,0.292510986328125,-0.958526611328125
20230215-1535,2023-02-15 15:35:02Z,u02, 165,100,movements,el-ex, lt, nd,281371.67006625, -0.19597698834786784, 0.040858320423891245, 0.21960651581872942, 0.2553566098213196, -0.3697981834411621, -0.45860639214515686, -0.1945624053478241, -0.04084695503115654, -0.9800392985343933, 0.0395025908946991, -0.0065315887331962585, -0.02357703447341919, 0.03092575145990599, -0.09499450623213865, 0.9892220896239803,0.1070478734051159,-0.1956787109375,0.0352630615234375,-0.9575042724609375
20230215-1535,2023-02-15 15:35:02Z,u02, 166,100,movements,el-ex, lt, nd,281371.68008825, -0.19920312130414208, 0.043844098979407345, 0.21546091457751482, 0.16990987956523895, -0.31267473101615906, -0.4786272346973419, -0.19769810140132904, -0.04383005201816559, -0.9792826175689697, 0.07884740829467773, -0.10547719895839691, -0.03361105918884277, 0.03237431361922589, -0.09649149791717207, 0.989271986696981,0.10479653734466904,-0.1267242431640625,-0.1156463623046875,-1.01416015625
20230215-1535,2023-02-15 15:35:02Z,u02, 167,100,movements,el-ex, lt, nd,281371.69011125003, -0.20180795822956035, 0.04640781315174434, 0.21092819928272974, 0.16680212318897247, -0.2550867795944214, -0.5027160048484802, -0.2002251148223877, -0.04639115557074547, -0.9786509871482849, 0.07653738558292389, 0.0038801655173301697, -0.07193189859390259, 0.033556713491942856, -0.09771618325694732, 0.9893652339325556,0.10238086335869488,-0.1181640625,-0.119873046875,-1.0257415771484375
20230215-1535,2023-02-15 15:35:02Z,u02, 168,100,movements,el-ex, lt, nd,281371.70013425004, -0.20386616735779997, 0.049155358921793096, 0.20650604029498396, 0.1971331238746643, -0.20382893085479736, -0.46680113673210144, -0.202212393283844, -0.049135565757751465, -0.978108286857605, 0.04178149998188019, 0.11557233333587646, -0.14882951974868774, 0.034802291720145054, -0.09866433166548898, 0.9894700430003235,0.10001630675635119,-0.1362457275390625,0.0318603515625,-1.08197021484375
20230215-1535,2023-02-15 15:35:02Z,u02, 169,100,movements,el-ex, lt, nd,281371.71015725, -0.20553282578015278, 0.05228343379710488, 0.20258941000295655, 0.267936110496521, -0.17554908990859985, -0.4279414415359497, -0.203809916973114, -0.05225961655378342, -0.97761470079422, -0.013307377696037292, 0.09846323728561401, -0.21965092420578003, 0.03623763060542447, -0.09939565734496737, 0.9895583597025273,0.09788598431613658,-0.1899871826171875,0.068756103515625,-1.1671905517578125
20230215-1535,2023-02-15 15:35:02Z,u02, 170,100,movements,el-ex, lt, nd,281371.72017925, -0.20687047662216804, 0.05641496940398395, 0.19922962007219297, 0.39448314905166626, -0.1219329982995987, -0.398481547832489, -0.2050713449716568, -0.05638504773378372, -0.9771215319633484, -0.05345830321311951, 0.01968766376376152, -0.2202814221382141, 0.038178167095042716, -0.09990829325758573, 0.9896202399171218,0.0959816438068806,-0.2398529052734375,0.0115203857421875,-1.2166290283203125
20230215-1535,2023-02-15 15:35:02Z,u02, 171,100,movements,el-ex, lt, nd,281371.73020225, -0.20751294784197608, 0.061463205368602225, 0.19643492766273454, 0.47686704993247986, -0.03362710401415825, -0.34979453682899475, -0.20563781261444092, -0.061424512416124344, -0.9766985774040222, -0.10457335412502289, -0.07884953171014786, -0.13520938158035278, 0.04056551611899996, -0.10002574518518552, 0.98967318842465,0.09431918334395817,-0.2801361083984375,-0.095001220703125,-1.1566162109375
20230215-1535,2023-02-15 15:35:02Z,u02, 172,100,movements,el-ex, lt, nd,281371.74022525, -0.20710060541609016, 0.06689077668116124, 0.1942343176836626, 0.48850348591804504, 0.0803239643573761, -0.30239081382751465, -0.20516347885131836, -0.06684090197086334, -0.9764426350593567, -0.16724251210689545, -0.09449027478694916, -0.06918114423751831, 0.04312047867679003, -0.09959569169368278, 0.9897380637730657,0.09295107252612382,-0.342559814453125,-0.161376953125,-1.073028564453125
20230215-1535,2023-02-15 15:35:02Z,u02, 173,100,movements,el-ex, lt, nd,281371.75024825, -0.20557506801372033, 0.07225985427392372, 0.19264041150212738, 0.49823614954948425, 0.19748574495315552, -0.22976095974445343, -0.20359745621681213, -0.07219699025154114, -0.9763891100883484, -0.22950799763202667, -0.04389187693595886, -0.03355962038040161, 0.045626246482102936, -0.09860881039735862, 0.9898215000749421,0.09191213586881755,-0.404327392578125,-0.1383056640625,-1.0250244140625
20230215-1535,2023-02-15 15:35:02Z,u02, 174,100,movements,el-ex, lt, nd,281371.76027025003, -0.20294196547349194, 0.07725707397635846, 0.19161305119083374, 0.43273571133613586, 0.31288716197013855, -0.1815662682056427, -0.20095059275627136, -0.07718024402856827, -0.9765562415122986, -0.24938203394412994, -0.04298271983861923, -0.001364290714263916, 0.04792693610199387, -0.09708190237024018, 0.9899292783001067,0.09120294652474568,-0.448822021484375,-0.1128082275390625,-0.9974365234375
20230215-1535,2023-02-15 15:35:02Z,u02, 175,100,movements,el-ex, lt, nd,281371.77029325004, -0.19918111880883918, 0.08135900146367503, 0.19060102200902324, 0.31925562024116516, 0.4173581898212433, -0.17467379570007324, -0.19721220433712006, -0.081269271671772, -0.9769865274429321, -0.24199678003787994, -0.0233754962682724, 0.0007902383804321289, 0.049736332416530214, -0.09504230308772392, 0.9900950664293192,0.09058134853098451,-0.446502685546875,-0.1199951171875,-0.9657440185546875
20230215-1535,2023-02-15 15:35:02Z,u02, 176,100,movements,el-ex, lt, nd,281371.78031625, -0.19454251172763218, 0.0843445032706584, 0.18966391425064782, 0.24596409499645233, 0.4846794307231903, -0.11623604595661163, -0.19263046979904175, -0.08424453437328339, -0.9776483774185181, -0.24943189322948456, 0.0010078400373458862, -0.08012139797210693, 0.050959829584641125, -0.09262237349463952, 0.9903077360926068,0.09008240594844763,-0.4358062744140625,-0.0901947021484375,-1.010040283203125
20230215-1535,2023-02-15 15:35:02Z,u02, 177,100,movements,el-ex, lt, nd,281371.79033925, -0.18951975857066256, 0.08730563371286518, 0.1893477518274396, 0.3500424325466156, 0.5101352334022522, -0.06511736661195755, -0.1876697540283203, -0.0871947631239891, -0.978354275226593, -0.2550029754638672, -0.0327240526676178, -0.16004294157028198, 0.05218459851897403, -0.08999788654763502, 0.9905016594644901,0.08990821200272246,-0.4499359130859375,-0.094879150390625,-1.0992889404296875
20230215-1535,2023-02-15 15:35:02Z,u02, 178,100,movements,el-ex, lt, nd,281371.80036125, -0.18434850696089583, 0.09134051020136856, 0.18973983997159433, 0.443514347076416, 0.5421773195266724, -0.006553919520229101, -0.18254198133945465, -0.09121355414390564, -0.9789578914642334, -0.17628370225429535, -0.03126874566078186, -0.2177736759185791, 0.05396615104626339, -0.0872279694082467, 0.9906417471601177,0.09004389064703877,-0.40966796875,-0.130157470703125,-1.180633544921875
20230215-1535,2023-02-15 15:35:02Z,u02, 179,100,movements,el-ex, lt, nd,281371.81038425, -0.17857621943792487, 0.09579334454915366, 0.19072105507260698, 0.46126851439476013, 0.632308304309845, 0.032612789422273636, -0.1768142431974411, -0.09564690291881561, -0.9795858263969421, -0.052769482135772705, 0.002095267176628113, -0.11219578981399536, 0.055951611944549944, -0.084121966008034, 0.9907605568683598,0.09047811864266372,-0.2953948974609375,-0.106475830078125,-1.157257080078125
20230215-1535,2023-02-15 15:35:02Z,u02, 180,100,movements,el-ex, lt, nd,281371.82040725, -0.17199734523918458, 0.0997225158812339, 0.1918073857549712, 0.34248700737953186, 0.703813374042511, 0.03757825493812561, -0.17030026018619537, -0.0995573177933693, -0.9803500175476074, 0.058529630303382874, -0.020025812089443207, 0.04922819137573242, 0.057642813395700945, -0.08063681863305487, 0.9909034934239859,0.09102303156969103,-0.1681365966796875,-0.0996856689453125,-1.0060272216796875
20230215-1535,2023-02-15 15:35:02Z,u02, 181,100,movements,el-ex, lt, nd,281371.83043025003, -0.16481910899172933, 0.10230649771626962, 0.19254859511708772, 0.18988971412181854, 0.7496522068977356, 0.0184555072337389, -0.1632159948348999, -0.10212812572717667, -0.9812901616096497, 0.1365436315536499, -0.006682306528091431, 0.12098437547683716, 0.05862380182505026, -0.07692962817665745, 0.9910982067289668,0.09148468646600455,-0.062591552734375,-0.1218109130859375,-0.8856964111328125
20230215-1535,2023-02-15 15:35:02Z,u02, 182,100,movements,el-ex, lt, nd,281371.84045225004, -0.157330062171078, 0.10369847258907146, 0.19287474569731425, 0.114212267100811, 0.746107280254364, 0.0036390102468430996, -0.15584012866020203, -0.1035127192735672, -0.9823436141014099, 0.14998076856136322, 0.0386476069688797, 0.12043565511703491, 0.058982186509566804, -0.07313887830044542, 0.9913340940550509,0.09180742223628956,-0.0082855224609375,-0.088897705078125,-0.849853515625
20230215-1535,2023-02-15 15:35:02Z,u02, 183,100,movements,el-ex, lt, nd,281371.85047525004, -0.15006013447242092, 0.10463125071776272, 0.19315798553312236, 0.08472813665866852, 0.7113698124885559, 0.024331292137503624, -0.14868001639842987, -0.10444044321775436, -0.9833546876907349, 0.13072042167186737, 0.036813490092754364, 0.06204426288604736, 0.059120035009619876, -0.069480036347779, 0.9915596168579547,0.092124557683009,-0.010223388671875,-0.0530548095703125,-0.892364501953125
20230215-1535,2023-02-15 15:35:02Z,u02, 184,100,movements,el-ex, lt, nd,281371.86049825, -0.1432570196927978, 0.10544664633870282, 0.19377150025926823, 0.10637804120779037, 0.6541478037834167, 0.07091078162193298, -0.141974538564682, -0.10525134205818176, -0.984258770942688, 0.1059485673904419, -0.01803966611623764, 0.041677653789520264, 0.05923064689896427, -0.0660479482680037, 0.9917433484589929,0.09259829921076247,-0.027435302734375,-0.095611572265625,-0.93756103515625
20230215-1535,2023-02-15 15:35:02Z,u02, 185,100,movements,el-ex, lt, nd,281371.87052025, -0.13696434357517367, 0.10671613469843601, 0.19495658335028998, 0.17899823188781738, 0.623727560043335, 0.12589280307292938, -0.13575980067253113, -0.10651369392871857, -0.9849995374679565, 0.08525320887565613, -0.021339699625968933, 0.07134902477264404, 0.05960542752412218, -0.06282849717365334, 0.9918618676688464,0.09332552115193632,-0.046112060546875,-0.1369781494140625,-0.926605224609375
20230215-1535,2023-02-15 15:35:02Z,u02, 186,100,movements,el-ex, lt, nd,281371.88054237503, -0.1310666692481303, 0.10864063649544546, 0.19671580084438925, 0.24508324265480042, 0.5944676995277405, 0.1686839461326599, -0.12992122769355774, -0.10842705518007278, -0.9855780005455017, 0.06298093497753143, 0.04197502136230469, 0.09061950445175171, 0.06033645560818969, -0.05975364604723501, 0.9919150558389876,0.09430575397761928,-0.05596923828125,-0.1000213623046875,-0.9134521484375
20230215-1535,2023-02-15 15:35:02Z,u02, 187,100,movements,el-ex, lt, nd,281371.89056537504, -0.12549627833937882, 0.11101275823670134, 0.1990507188018185, 0.2808583080768585, 0.565973699092865, 0.23292769491672516, -0.12439664453268051, -0.11078488081693649, -0.9860284924507141, 0.02658781409263611, 0.09642636030912399, 0.1330164074897766, 0.06131574309296525, -0.05679906737735358, 0.9919093952614443,0.09555123184527001,-0.080108642578125,-0.032501220703125,-0.8665008544921875
20230215-1535,2023-02-15 15:35:02Z,u02, 188,100,movements,el-ex, lt, nd,281371.900588375, -0.12033098943181074, 0.11331267782300608, 0.20217342359719312, 0.24946948885917664, 0.5322061777114868, 0.3228602409362793, -0.11927098780870438, -0.11307034641504288, -0.9864023327827454, -0.014838501811027527, 0.06997953355312347, 0.12913304567337036, 0.06229320892602839, -0.05402220598332108, 0.9918450394133878,0.09718292265071912,-0.1183319091796875,-0.020843505859375,-0.8497314453125
20230215-1535,2023-02-15 15:35:02Z,u02, 189,100,movements,el-ex, lt, nd,281371.910610375, -0.11563136835533858, 0.11512799551924474, 0.2060096199774156, 0.19715507328510284, 0.496242880821228, 0.3871733248233795, -0.11461009830236435, -0.11487383395433426, -0.9867464303970337, -0.027952760457992554, 0.028097108006477356, 0.09793722629547119, 0.0630632693413564, -0.05147627000991044, 0.9917347159828359,0.09917413870334572,-0.1430816650390625,-0.067108154296875,-0.8717041015625
20230215-1535,2023-02-15 15:35:02Z,u02, 190,100,movements,el-ex, lt, nd,281371.920633375, -0.11123696241236596, 0.1163369078821446, 0.21040680444543478, 0.13750532269477844, 0.4819113314151764, 0.4511464238166809, -0.1102573424577713, -0.11607466638088226, -0.9871017932891846, -0.028368741273880005, 0.00880538672208786, 0.09748393297195435, 0.06355242170992867, -0.04909361401060991, 0.991593468218094,0.10145586085033258,-0.14093017578125,-0.099334716796875,-0.89434814453125
20230215-1535,2023-02-15 15:35:02Z,u02, 191,100,movements,el-ex, lt, nd,281371.930656375, -0.10710192626714703, 0.11671087828499456, 0.2152252674064973, 0.03729844093322754, 0.4675601124763489, 0.48422929644584656, -0.10617006570100784, -0.1164461001753807, -0.987506091594696, -0.017700769007205963, 0.0031648576259613037, 0.09422606229782104, 0.06364093753932963, -0.046870029908723305, 0.9914354979857384,0.10396485803879159,-0.1331787109375,-0.115570068359375,-0.890045166015625
20230215-1535,2023-02-15 15:35:02Z,u02, 192,100,movements,el-ex, lt, nd,281371.940679375, -0.10331359882260648, 0.1158588758114348, 0.22032236248436038, 0.009348032996058464, 0.39730697870254517, 0.5311203598976135, -0.10243850946426392, -0.1155998483300209, -0.9879994988441467, -0.008981160819530487, 0.0393669456243515, 0.06188255548477173, 0.0631363581095682, -0.044878133842980006, 0.9912761414739761,0.10663636575074424,-0.1147308349609375,-0.0990142822265625,-0.902923583984375
20230215-1535,2023-02-15 15:35:02Z,u02, 193,100,movements,el-ex, lt, nd,281371.950701375, -0.10021743369318059, 0.11533117812750047, 0.22595105017666567, 0.005019160453230143, 0.3557952344417572, 0.5883359313011169, -0.099385105073452, -0.11507567018270493, -0.9883725047111511, -0.014140278100967407, 0.07755430787801743, -0.024017632007598877, 0.06283161653123367, -0.04319652450488705, 0.9910538054245428,0.10953835658583172,-0.1106414794921875,-0.049713134765625,-0.9573822021484375
20230215-1535,2023-02-15 15:35:02Z,u02, 194,100,movements,el-ex, lt, nd,281371.96072437504, -0.09767317424601828, 0.11491218233431479, 0.23210484705758128, 0.045876313000917435, 0.30540981888771057, 0.6379692554473877, -0.09687480330467224, -0.11465945094823837, -0.9886700510978699, -0.06407489627599716, 0.09215273708105087, -0.022438347339630127, 0.06261352896554365, -0.041767420010532304, 0.9907767058175548,0.11267875288394126,-0.1301727294921875,-0.03875732421875,-1.0355682373046875
20230215-1535,2023-02-15 15:35:02Z,u02, 195,100,movements,el-ex, lt, nd,281371.97074737505, -0.09520903507148071, 0.1153830332962623, 0.23903138670748353, 0.18021856248378754, 0.34437131881713867, 0.7243331074714661, -0.09443314373493195, -0.11512718349695206, -0.9888519048690796, -0.09883466362953186, 0.07971153408288956, -0.0006500482559204102, 0.06284772240706249, -0.04030144229679052, 0.9904188351753209,0.11617391661950163,-0.184967041015625,-0.01861572265625,-0.997650146484375
20230215-1535,2023-02-15 15:35:02Z,u02, 196,100,movements,el-ex, lt, nd,281371.980770375, -0.09258365163568513, 0.11714733788834807, 0.2469404458503005, 0.3135984539985657, 0.36262941360473633, 0.7987053394317627, -0.09181778877973557, -0.11687957495450974, -0.9888926148414612, -0.08111005276441574, 0.03030122071504593, -0.019087672233581543, 0.06372163082496081, -0.03864235957887655, 0.9899577202928996,0.1201254841823246,-0.1860809326171875,-0.0631561279296875,-0.994110107421875
20230215-1535,2023-02-15 15:35:02Z,u02, 197,100,movements,el-ex, lt, nd,281371.990792375, -0.0898959927204515, 0.11968790598548835, 0.25542176010638884, 0.3334348499774933, 0.37682220339775085, 0.8351238965988159, -0.08913271129131317, -0.11940234899520874, -0.9888368844985962, -0.046914637088775635, 0.029375500977039337, -0.03490573167800903, 0.06497383546973806, -0.0368774288416372, 0.9894227960852047,0.12434212989847346,-0.1565093994140625,-0.0935211181640625,-1.0236968994140625
20230215-1535,2023-02-15 15:35:02Z,u02, 198,100,movements,el-ex, lt, nd,281372.000815375, -0.08703346331799182, 0.12225307190767815, 0.264743330626427, 0.3408070206642151, 0.41747695207595825, 0.9677118062973022, -0.08627486228942871, -0.12194877117872238, -0.988779604434967, -0.057142481207847595, 0.057236261665821075, 0.0027719736099243164, 0.06622776737665724, -0.03498672642639028, 0.9888144124975907,0.1289799290593993,-0.1312713623046875,-0.0785064697265625,-1.0040435791015625
20230215-1535,2023-02-15 15:35:02Z,u02, 199,100,movements,el-ex, lt, nd,281372.010838375, -0.08412141495939773, 0.12484090809746075, 0.2755462695748189, 0.3574827015399933, 0.4284539818763733, 1.1116943359375, -0.08336833119392395, -0.12451688200235367, -0.9887089133262634, -0.05609699338674545, 0.07584135234355927, -0.022353708744049072, 0.06749775587871493, -0.033009216676139895, 0.9880811155011802,0.13435088051937139,-0.153472900390625,-0.0572357177734375,-0.98944091796875
20230215-1535,2023-02-15 15:35:02Z,u02, 200,100,movements,el-ex, lt, nd,281372.02086137503, -0.08125176584865323, 0.12724854349754108, 0.287643345091589, 0.31209391355514526, 0.44747453927993774, 1.2360759973526, -0.08050618320703506, -0.1269054114818573, -0.9886423945426941, 0.03549276292324066, 0.1002635806798935, -0.05180865526199341, 0.06868236296298938, -0.031008686056804832, 0.9872282606247509,0.14036266301825134,-0.10003662109375,-0.0378875732421875,-1.029144287109375
20230215-1535,2023-02-15 15:35:02Z,u02, 201,100,movements,el-ex, lt, nd,281372.03088337503, -0.0785646724126742, 0.1288515757319422, 0.30105831026389973, 0.2290814220905304, 0.4251921474933624, 1.385239839553833, -0.07783325016498566, -0.12849532067775726, -0.9886510968208313, 0.13026246428489685, 0.12735091149806976, -0.0271570086479187, 0.06948119200754935, -0.0291003387099799, 0.9862586853683285,0.14703496439518607,0.0091705322265625,-0.01129150390625,-1.03466796875
20230215-1535,2023-02-15 15:35:02Z,u02, 202,100,movements,el-ex, lt, nd,281372.04090637504, -0.07613077770863379, 0.13014009462355106, 0.3157920970030344, 0.25697723031044006, 0.45406585931777954, 1.4885870218276978, -0.07541409879922867, -0.12977305054664612, -0.9886716604232788, 0.18237821757793427, 0.09782114624977112, -0.03201925754547119, 0.07014006262674445, -0.027286212935314094, 0.9851455286042023,0.15435055660060143,0.08526611328125,-0.0099945068359375,-1.008056640625
20230215-1535,2023-02-15 15:35:02Z,u02, 203,100,movements,el-ex, lt, nd,281372.050929375, -0.07335541729004491, 0.1317023529414029, 0.3313477527436189, 0.28283998370170593, 0.5173017978668213, 1.5585321187973022, -0.07265494018793106, -0.13132193684577942, -0.988673746585846, 0.14440178871154785, 0.08047966659069061, -0.08664357662200928, 0.07089323863407264, -0.02524416349859888, 0.983905767002684,0.1620689550085504,0.10906982421875,-0.0506744384765625,-1.0516204833984375
20230215-1535,2023-02-15 15:35:02Z,u02, 204,100,movements,el-ex, lt, nd,281372.060952375, -0.06975153147922977, 0.13368029042354, 0.3477608878441931, 0.34901633858680725, 0.6408532857894897, 1.6537760496139526, -0.06907317042350769, -0.13328249752521515, -0.9886681437492371, -0.007648013532161713, 0.08691103756427765, -0.03411322832107544, 0.07176225173378342, -0.022718136464590782, 0.982526847308882,0.1702205132068574,0.0019989013671875,-0.043060302734375,-1.0546417236328125
20230215-1535,2023-02-15 15:35:02Z,u02, 205,100,movements,el-ex, lt, nd,281372.070974375, -0.06503847708117934, 0.13611208727011948, 0.3650549333175281, 0.35964667797088623, 0.7586656808853149, 1.718679666519165, -0.06439152359962463, -0.13569219410419464, -0.9886563420295715, -0.11398372054100037, 0.005748346447944641, -0.03397244215011597, 0.0727265427505342, -0.01956220314839755, 0.9809942018907966,0.17882538997498437,-0.1417083740234375,-0.07855224609375,-1.009674072265625
20230215-1535,2023-02-15 15:35:02Z,u02, 206,100,movements,el-ex, lt, nd,281372.080997375, -0.05952673860016872, 0.13834427694335927, 0.3827317634478195, 0.29429084062576294, 0.8178496360778809, 1.7371488809585571, -0.05892318859696388, -0.13790340721607208, -0.9886913895606995, -0.08692031353712082, -0.05119878053665161, -0.06363099813461304, 0.07347185171513432, -0.01600563782509576, 0.9793550285202619,0.18764182549687664,-0.1772613525390625,-0.1699981689453125,-1.0392913818359375
20230215-1535,2023-02-15 15:35:02Z,u02, 207,100,movements,el-ex, lt, nd,281372.091020375, -0.0536185132252324, 0.13957112623491252, 0.4005007896494187, 0.14615294337272644, 0.846746027469635, 1.7597744464874268, -0.05307167395949364, -0.13911841809749603, -0.9888526201248169, -0.014646828174591064, -0.04439903795719147, -0.0729759931564331, 0.07363011200523786, -0.012341303690470666, 0.9776518762382563,0.19652746011811653,-0.1022796630859375,-0.1929931640625,-1.0613250732421875
20230215-1535,2023-02-15 15:35:02Z,u02, 208,100,movements,el-ex, lt, nd,281372.101042375, -0.047667397453096, 0.13923365370527807, 0.41852732704466283, -0.03058108501136303, 0.8363487720489502, 1.8034306764602661, -0.047188229858875275, -0.1387842297554016, -0.9891977310180664, 0.0012745410203933716, -0.04302424192428589, -0.01817220449447632, 0.07296250557400022, -0.008808676926068008, 0.9758819150781535,0.20555606615875163,-0.0514373779296875,-0.176116943359375,-1.0404052734375
20230215-1535,2023-02-15 15:35:02Z,u02, 209,100,movements,el-ex, lt, nd,281372.11106537504, -0.042119721037439994, 0.1372923895566822, 0.43688830426486613, -0.18128417432308197, 0.7710831761360168, 1.8338305950164795, -0.041711047291755676, -0.13686148822307587, -0.9897116422653198, 0.028832636773586273, -0.05387337505817413, 0.007213473320007324, 0.0715002245709408, -0.005648041700344006, 0.9740335639066262,0.21474256075419654,-0.034820556640625,-0.18902587890625,-0.986663818359375
20230215-1535,2023-02-15 15:35:02Z,u02, 210,100,movements,el-ex, lt, nd,281372.121088375, -0.03720210368774689, 0.13448726813112438, 0.4553793047847955, -0.20056839287281036, 0.7190162539482117, 1.8418043851852417, -0.03685767203569412, -0.13408222794532776, -0.9902845621109009, 0.07047279179096222, -0.04296550154685974, -0.02773606777191162, 0.06963646476252187, -0.0029143011642069317, 0.9721028011618226,0.22396077087725907,0.0135498046875,-0.1847686767578125,-0.9956512451171875
20230215-1535,2023-02-15 15:35:02Z,u02, 211,100,movements,el-ex, lt, nd,281372.131111375, -0.03269443924351458, 0.13199798666765272, 0.47395046265826357, -0.1591261923313141, 0.6754096746444702, 1.8482476472854614, -0.032404255121946335, -0.13161501288414001, -0.9907711148262024, 0.06273873150348663, -0.01743282377719879, -0.04102814197540283, 0.06792856419232875, -0.00037421535029240707, 0.9700596905807257,0.2331731247037084,0.03997802734375,-0.1648406982421875,-1.03240966796875
20230215-1535,2023-02-15 15:35:02Z,u02, 212,100,movements,el-ex, lt, nd,281372.141133375, -0.02861971563543216, 0.13016605680806442, 0.4926612458749849, -0.10190099477767944, 0.617515504360199, 1.857779860496521, -0.028373729437589645, -0.1297987997531891, -0.9911342859268188, 0.011833207681775093, 0.05001059174537659, 0.021224617958068848, 0.06654931707742089, 0.0020094346309285417, 0.9678882894414195,0.24240328114469978,0.0092926025390625,-0.1204681396484375,-1.0085601806640625
20230215-1535,2023-02-15 15:35:02Z,u02, 213,100,movements,el-ex, lt, nd,281372.151156375, -0.025401583138263288, 0.1284464653858634, 0.5113483102377965, -0.14717815816402435, 0.4921160340309143, 1.8486934900283813, -0.02518961764872074, -0.12809355556964874, -0.9914421439170837, -0.01999165117740631, 0.06005461513996124, 0.05606311559677124, 0.06529311122611427, 0.003967172678286967, 0.9656266661393847,0.2515673771914558,-0.0359039306640625,-0.0608978271484375,-0.9475250244140625
20230215-1535,2023-02-15 15:35:02Z,u02, 214,100,movements,el-ex, lt, nd,281372.161179375, -0.023673574097391778, 0.12589748841849902, 0.5299347752593397, -0.26046690344810486, 0.31873229146003723, 1.833541989326477, -0.023484012112021446, -0.12556517124176025, -0.9918074011802673, -0.009032461792230606, 0.004212021827697754, 0.09126418828964233, 0.06380110761974106, 0.005072033748655743, 0.9633171320637457,0.2606221754996193,-0.04345703125,-0.091766357421875,-0.9183807373046875
20230215-1535,2023-02-15 15:35:02Z,u02, 215,100,movements,el-ex, lt, nd,281372.17120237503, -0.02362194709428335, 0.12238880569692204, 0.5481230290725275, -0.36465758085250854, 0.1387699693441391, 1.7760928869247437, -0.02344307117164135, -0.12208349257707596, -0.9922429323196411, 0.021642537787556648, -0.03839319944381714, 0.08115589618682861, 0.06206024247376208, 0.0052017460345874416, 0.961006173150002,0.2694228177212867,-0.01776123046875,-0.1446533203125,-0.9008026123046875
20230215-1535,2023-02-15 15:35:02Z,u02, 216,100,movements,el-ex, lt, nd,281372.18122437503, -0.025083854986754382, 0.11714576361635712, 0.5655490294468116, -0.5852876901626587, -0.01588565669953823, 1.7024016380310059, -0.024909324944019318, -0.11687801033258438, -0.9928338527679443, 0.044486355036497116, -0.07201053947210312, 0.09824156761169434, 0.0597034477317795, 0.004309581362288012, 0.9587677040446436,0.2778156120873583,0.01092529296875,-0.1790924072265625,-0.911865234375
20230215-1535,2023-02-15 15:35:02Z,u02, 217,100,movements,el-ex, lt, nd,281372.19124737504, -0.02794114182390076, 0.11044172367977818, 0.5822383683910881, -0.652160108089447, -0.1715484857559204, 1.6418322324752808, -0.027767296880483627, -0.11021734774112701, -0.9935195446014404, 0.055050015449523926, -0.07958672940731049, 0.11183619499206543, 0.05686896332616762, 0.002478240411350692, 0.9565910317710214,0.28582042398331453,0.023406982421875,-0.184814453125,-0.8769378662109375
20230215-1535,2023-02-15 15:35:02Z,u02, 218,100,movements,el-ex, lt, nd,281372.201270375, -0.03192814608796507, 0.10309599197303364, 0.5981875281748478, -0.7075653076171875, -0.2819407880306244, 1.5707944631576538, -0.03175322338938713, -0.10291346162557602, -0.994183361530304, 0.07788054645061493, -0.11243382841348648, 0.07268983125686646, 0.05392881432373666, -5.424067851540053e-05, 0.9544553516872084,0.2934394339218371,0.0340423583984375,-0.2113800048828125,-0.90655517578125
20230215-1535,2023-02-15 15:35:02Z,u02, 219,100,movements,el-ex, lt, nd,281372.211293375, -0.03671307260243684, 0.09534920915480508, 0.6134666988957607, -0.7255508899688721, -0.37230822443962097, 1.5164780616760254, -0.036538101732730865, -0.09520480036735535, -0.9947869181632996, 0.08722780644893646, -0.04610685259103775, 0.08553093671798706, 0.050960598749796374, -0.00309159719433055, 0.9523455293076295,0.30071825120604595,0.052215576171875,-0.18194580078125,-0.915283203125
20230215-1535,2023-02-15 15:35:02Z,u02, 220,100,movements,el-ex, lt, nd,281372.221315375, -0.042101733035399914, 0.08783810412127992, 0.6282370792279458, -0.6397355794906616, -0.4276287257671356, 1.4757951498031616, -0.0419270284473896, -0.0877251923084259, -0.9952619671821594, 0.0544392429292202, -0.013410061597824097, 0.07161694765090942, 0.048244883270028065, -0.006437380886205626, 0.9502270221852074,0.3077329795472641,0.03900146484375,-0.111785888671875,-0.9162445068359375
20230215-1535,2023-02-15 15:35:02Z,u02, 221,100,movements,el-ex, lt, nd,281372.231338375, -0.047687025675492926, 0.08155774716515288, 0.6426535638472444, -0.4557144343852997, -0.4478919208049774, 1.4379788637161255, -0.047510500997304916, -0.08146736025810242, -0.9955430030822754, 0.002848029136657715, -0.04350212216377258, 0.03782510757446289, 0.04619340269728865, -0.009730397914685388, 0.9480658940320091,0.31455125951529395,-0.0187225341796875,-0.114959716796875,-0.9368743896484375
20230215-1535,2023-02-15 15:35:02Z,u02, 222,100,movements,el-ex, lt, nd,281372.241361375, -0.05347613749679601, 0.0778656140888339, 0.6565994015109651, -0.15804709494113922, -0.4893099367618561, 1.3583167791366577, -0.05328869819641113, -0.07778695225715637, -0.9955448508262634, -0.005717035382986069, -0.011721104383468628, 0.015442311763763428, 0.04544470478817677, -0.012742243794165177, 0.9458720795317127,0.3210894776040794,-0.0583648681640625,-0.1150970458984375,-0.978485107421875
20230215-1535,2023-02-15 15:35:02Z,u02, 223,100,movements,el-ex, lt, nd,281372.25138437503, -0.05957951730695215, 0.07634534521875996, 0.6696509276430204, -0.01747148111462593, -0.5343834161758423, 1.252133846282959, -0.05937083065509796, -0.07627119868993759, -0.9953179359436035, 0.05360300838947296, 0.011940144002437592, 0.006304264068603516, 0.045808575982636726, -0.015575713837969338, 0.9437343925669474,0.3271456800510952,-0.0374603271484375,-0.075653076171875,-0.979583740234375
20230215-1535,2023-02-15 15:35:02Z,u02, 224,100,movements,el-ex, lt, nd,281372.26140637504, -0.06616561023481163, 0.07533016981266986, 0.6816817904726173, -0.050298403948545456, -0.6056647896766663, 1.1549246311187744, -0.0659298375248909, -0.07525894790887833, -0.9949820637702942, 0.0830807313323021, -0.016217492520809174, -0.003629326820373535, 0.0465196032261515, -0.018571072621109967, 0.9417063986322899,0.33268598599544186,0.0140228271484375,-0.063201904296875,-1.00244140625
20230215-1535,2023-02-15 15:35:02Z,u02, 225,100,movements,el-ex, lt, nd,281372.271429375, -0.07338911802542135, 0.07353954610975841, 0.6927824230946558, -0.15390504896640778, -0.6665952801704407, 1.0715914964675903, -0.07312507927417755, -0.07347328215837479, -0.9946126937866211, 0.06552620232105255, -0.07093590497970581, 0.047469139099121094, 0.04700151678784921, -0.022011652299497926, 0.9397934395922298,0.33777915582784174,0.0063629150390625,-0.1287689208984375,-0.9776611328125
20230215-1535,2023-02-15 15:35:02Z,u02, 226,100,movements,el-ex, lt, nd,281372.281452375, -0.08093709260331122, 0.07069147561397487, 0.7029292744900877, -0.24725525081157684, -0.6951611638069153, 0.9846948981285095, -0.0806468278169632, -0.07063261419534683, -0.994236946105957, 0.021473251283168793, -0.05575593560934067, 0.0664873719215393, 0.047070701380446, -0.025804489663422883, 0.938007008308865,0.3424342631941957,-0.029693603515625,-0.1381378173828125,-0.9319305419921875
20230215-1535,2023-02-15 15:35:02Z,u02, 227,100,movements,el-ex, lt, nd,281372.291475375, -0.08869317142897296, 0.0671391860226669, 0.7120117588612855, -0.3082239031791687, -0.7308469414710999, 0.8712005615234375, -0.08837737143039703, -0.06708876043558121, -0.9938251972198486, -0.031022652983665466, -0.05592760443687439, 0.06119275093078613, 0.046870314912120854, -0.029842436276931665, 0.9363658820918103,0.346599891686779,-0.0953521728515625,-0.1223907470703125,-0.9267578125
20230215-1535,2023-02-15 15:35:02Z,u02, 228,100,movements,el-ex, lt, nd,281372.301497375, -0.09669274004185908, 0.06308274198435679, 0.719947952187458, -0.33837223052978516, -0.7617561221122742, 0.7843735218048096, -0.09635011106729507, -0.06304091215133667, -0.9933491349220276, -0.04955442249774933, -0.05863267928361893, 0.06030470132827759, 0.04649527652246153, -0.03411191364831017, 0.9348843532339816,0.35023689810422814,-0.1324920654296875,-0.1254730224609375,-0.9352569580078125
20230215-1535,2023-02-15 15:35:02Z,u02, 229,100,movements,el-ex, lt, nd,281372.311520375, -0.10472709697963069, 0.05879334430019862, 0.7270646225897619, -0.3685012757778168, -0.7465364336967468, 0.7170479893684387, -0.10435514152050018, -0.058759476989507675, -0.9928027391433716, -0.07931488007307053, -0.053117964416742325, 0.05455511808395386, 0.0460366631073842, -0.038460940206618485, 0.933509308774152,0.35349926729375497,-0.16448974609375,-0.1141510009765625,-0.930816650390625
20230215-1535,2023-02-15 15:35:02Z,u02, 230,100,movements,el-ex, lt, nd,281372.32154337503, -0.11221564708310482, 0.054451716213480286, 0.7337413898636596, -0.3443858325481415, -0.6686871647834778, 0.7103222012519836, -0.11181431263685226, -0.05442481115460396, -0.9922376275062561, -0.10856837034225464, -0.03309960663318634, 0.034443438053131104, 0.04547861636683933, -0.042577981203656405, 0.9321876559692601,0.35657394551883165,-0.2010040283203125,-0.104400634765625,-0.948638916015625
20230215-1535,2023-02-15 15:35:02Z,u02, 231,100,movements,el-ex, lt, nd,281372.33156537503, -0.11883172792129933, 0.050408357261672906, 0.7406044154069988, -0.28869500756263733, -0.586320698261261, 0.7380216717720032, -0.1184016689658165, -0.05038701370358467, -0.9916865229606628, -0.1096561849117279, -0.0037053972482681274, -0.004575073719024658, 0.04493480083984434, -0.04623411195532693, 0.9308190938258332,0.35974876316971127,-0.231689453125,-0.0691680908203125,-0.9768524169921875
20230215-1535,2023-02-15 15:35:02Z,u02, 232,100,movements,el-ex, lt, nd,281372.34158837504, -0.12469765684363884, 0.04720684609524597, 0.7476617269382423, -0.18690498173236847, -0.5060577988624573, 0.7359982132911682, -0.12423618882894516, -0.04718931391835213, -0.9911299347877502, -0.04283228516578674, 0.03551633656024933, -0.057331979274749756, 0.04467625539993725, -0.04938690905761839, 0.9294045992358551,0.3630042902851047,-0.2043914794921875,-0.03131103515625,-1.0172576904296875
20230215-1535,2023-02-15 15:35:02Z,u02, 233,100,movements,el-ex, lt, nd,281372.351611375, -0.12952932735340492, 0.04465454756177722, 0.7549255966402946, -0.13130483031272888, -0.3905612528324127, 0.7681768536567688, -0.12903866171836853, -0.0446397103369236, -0.9906343221664429, 0.0005291551351547241, 0.049003716558218, -0.08471357822418213, 0.04455749323542117, -0.05193725984804396, 0.9279551811379475,0.3663555305988983,-0.1357879638671875,-0.0009002685546875,-1.075592041015625
20230215-1535,2023-02-15 15:35:02Z,u02, 234,100,movements,el-ex, lt, nd,281372.361634375, -0.13322296235425343, 0.04261180299167599, 0.7623953435929212, -0.0804608166217804, -0.2860311269760132, 0.7529448866844177, -0.13270865380764008, -0.042598906904459, -0.9902392625808716, -0.0025757700204849243, 0.035976592451334, -0.08771789073944092, 0.044488893424924424, -0.053862044214682374, 0.9264785829310436,0.3698068445061798,-0.1375579833984375,0.0100250244140625,-1.0606536865234375
20230215-1535,2023-02-15 15:35:02Z,u02, 235,100,movements,el-ex, lt, nd,281372.371656375, -0.1359062812932917, 0.041090149884858915, 0.7696216078357817, -0.029856739565730095, -0.19083403050899506, 0.7147783041000366, -0.13537393510341644, -0.0410785898566246, -0.9899426698684692, 0.04357706010341644, -0.016324982047080994, -0.15681636333465576, 0.044480813796689424, -0.05522799957911786, 0.9250588630563805,0.3731454543109006,-0.116180419921875,-0.0372314453125,-1.1172027587890625
20230215-1535,2023-02-15 15:35:02Z,u02, 236,100,movements,el-ex, lt, nd,281372.381679375, -0.13768355719211225, 0.040037490910388114, 0.7763905873247707, 0.0005586892366409302, -0.1112007200717926, 0.6433554887771606, -0.1371389776468277, -0.040026795119047165, -0.9897427558898926, 0.08220735192298889, -0.034512389451265335, -0.15124839544296265, 0.04451619989666111, -0.056097425766940975, 0.9237374464446386,0.3762718696855059,-0.0699920654296875,-0.0706329345703125,-1.1518707275390625
20230215-1535,2023-02-15 15:35:02Z,u02, 237,100,movements,el-ex, lt, nd,281372.391702375, -0.13865712394419913, 0.03902953641786481, 0.7823910572260339, -0.03163936734199524, -0.03502126783132553, 0.5757289528846741, -0.1381080001592636, -0.0390196293592453, -0.9896482229232788, 0.0883948802947998, -0.0469026118516922, -0.11902481317520142, 0.044404380819659105, -0.05660501878702153, 0.9225729012982119,0.37905586476928227,-0.0477752685546875,-0.0789642333984375,-1.1233062744140625
20230215-1535,2023-02-15 15:35:02Z,u02, 238,100,movements,el-ex, lt, nd,281372.40172537504, -0.13886130509150788, 0.038402403144444035, 0.7878072777332359, 0.056607142090797424, 0.026134764775633812, 0.4993380308151245, -0.1383134126663208, -0.038392964750528336, -0.9896440505981445, 0.04436507821083069, -0.056440409272909164, -0.0733594298362732, 0.044307829301081236, -0.056699063697066336, 0.9215343839675824,0.3815707760756494,-0.0668487548828125,-0.089080810546875,-1.0848388671875
20230215-1535,2023-02-15 15:35:02Z,u02, 239,100,movements,el-ex, lt, nd,281372.41174737504, -0.13841841051382, 0.03839230805940855, 0.7924916900737171, 0.0740940049290657, 0.09355667978525162, 0.4377902150154114, -0.13787515461444855, -0.0383828766644001, -0.9897056221961975, 0.022213533520698547, -0.0712210088968277, -0.07528156042098999, 0.04435088211774338, -0.056393202959378365, 0.9206507174571116,0.38373831748693443,-0.109649658203125,-0.109130859375,-1.0662384033203125
20230215-1535,2023-02-15 15:35:02Z,u02, 240,100,movements,el-ex, lt, nd,281372.421770375, -0.13745161187585367, 0.03855357578818782, 0.7968511098059226, 0.07340317964553833, 0.1269465982913971, 0.4213550388813019, -0.13691739737987518, -0.038544025272130966, -0.9898322820663452, -0.011947333812713623, -0.015670455992221832, -0.02275615930557251, 0.04436131400864929, -0.05582045278693108, 0.9198398834504695,0.3857599144445172,-0.1313323974609375,-0.076629638671875,-1.03955078125
20230215-1535,2023-02-15 15:35:02Z,u02, 241,100,movements,el-ex, lt, nd,281372.431793375, -0.13635066395800247, 0.03872078437664311, 0.8010679173138334, 0.06457842141389847, 0.11910571902990341, 0.40250590443611145, -0.13582667708396912, -0.03871110826730728, -0.9899760484695435, 0.004845231771469116, -0.02859541028738022, -0.03391921520233154, 0.04434223016838084, -0.055188271032290154, 0.9190558294391791,0.38771699152627015,-0.15081787109375,-0.059814453125,-1.0072479248046875
20230215-1535,2023-02-15 15:35:02Z,u02, 242,100,movements,el-ex, lt, nd,281372.441816375, -0.13544346610473187, 0.03872195699600068, 0.8051493160796176, 0.05294839292764664, 0.08786231279373169, 0.40751931071281433, -0.13492850959300995, -0.0387122817337513, -0.9900988340377808, 0.05787163972854614, -0.0285026878118515, -0.04902470111846924, 0.044278580787323774, -0.05468091004024111, 0.9182875258659697,0.38961180053089284,-0.1019134521484375,-0.0735931396484375,-1.034515380859375
20230215-1535,2023-02-15 15:35:02Z,u02, 243,100,movements,el-ex, lt, nd,281372.451838375, -0.13493626390015057, 0.03869909290741224, 0.8092263425285637, 0.055629245936870575, 0.03882152959704399, 0.39669737219810486, -0.13442642986774445, -0.03868943452835083, -0.9901679754257202, 0.07780107855796814, -0.00437086820602417, -0.045430779457092285, 0.04428019690658247, -0.054362358313795066, 0.9175051098910377,0.39149496975824516,-0.0648956298828125,-0.0507049560546875,-1.0377197265625
20230215-1535,2023-02-15 15:35:02Z,u02, 244,100,movements,el-ex, lt, nd,281372.461861375, -0.134832379473701, 0.03857505461295626, 0.8130774581797469, 0.015130555257201195, 0.009425291791558266, 0.3633204996585846, -0.13432420790195465, -0.038565486669540405, -0.9901866912841797, 0.08401599526405334, -0.008782539516687393, -0.024324417114257812, 0.044307567439384445, -0.054253912136075326, 0.9167519131512107,0.39326754760137567,-0.0494537353515625,-0.0421142578125,-1.0305023193359375
20230215-1535,2023-02-15 15:35:03Z,u02, 245,100,movements,el-ex, lt, nd,281372.47188437503, -0.1349402006505864, 0.03791330990789641, 0.8164773059099079, -0.05022132396697998, -0.005010638851672411, 0.33149775862693787, -0.13443437218666077, -0.03790422901511192, -0.9901973009109497, 0.03555743396282196, -0.0001206807792186737, 0.04056656360626221, 0.044118258533362036, -0.05435932571744016, 0.9160759576358335,0.3948459958699805,-0.0638427734375,-0.04571533203125,-0.9910736083984375
20230215-1535,2023-02-15 15:35:03Z,u02, 246,100,movements,el-ex, lt, nd,281372.48190737504, -0.13518302576196126, 0.03697632039867451, 0.8196372437882806, -0.05528825521469116, -0.03019348904490471, 0.3107099235057831, -0.13467954099178314, -0.03696789592504501, -0.9901993870735168, -0.06351685523986816, 0.027095455676317215, 0.10923320055007935, 0.04382378594975836, -0.054587449449352836, 0.9154399428833532,0.396319975046449,-0.1488189697265625,-0.0219268798828125,-0.905914306640625
