SessionID,LoggingTime,UID,RecNo,Hertz,Activity,MoveType,Wrist,Side,TimeStamp,DMRoll,DMPitch,DMYaw,DMRotX,DMRotY,DMRotZ,DMGrvX,DMGrvY,DMGrvZ,DMUAccelX,DMUAccelY,DMUAccelZ,DMQuatX,DMQuatY,DMQuatW,DMQuatZ,AccelroX,AceelroY,AceelroZ
20230215-1541,2023-02-15 15:41:06Z,u02, 1,100,movements,el-ex, lt, nd,281637.9997134167, -0.1192239987166278, 0.0727457317290076, 0.004343571841095442, -0.10685528814792633, -0.04541265591979027, 0.11327607929706573, -0.11862717568874359, -0.07268159091472626, -0.9902752041816711, 0.02611301839351654, -0.1841544210910797, 0.0029552578926086426, 0.03642947091539389, -0.059458320592588446, 0.997565787416445,4.336808689942018e-19,-0.134124755859375,0.00897216796875,-0.9998321533203125
20230215-1541,2023-02-15 15:41:06Z,u02, 2,100,movements,el-ex, lt, nd,281638.0097374167, -0.1198359328996025, 0.07037397442668616, 0.004870372382400787, -0.33120399713516235, -0.057375308126211166, 0.03551763668656349, -0.11925340443849564, -0.0703158974647522, -0.9903708100318909, -0.025003306567668915, -0.09412813931703568, 0.01655489206314087, 0.03526222623036412, -0.05975936319961883, 0.9975896965103925,0.0003226785188257973,-0.0821075439453125,-0.2283477783203125,-0.9903411865234375
20230215-1541,2023-02-15 15:41:06Z,u02, 3,100,movements,el-ex, lt, nd,281638.0197604167, -0.12025761765980084, 0.06689897735465804, 0.004493859337193234, -0.3313489556312561, -0.023192038759589195, -0.023210633546113968, -0.11969961225986481, -0.06684909015893936, -0.9905570149421692, -0.04939839988946915, 0.02902248501777649, 0.044100165367126465, 0.03351767855790852, -0.059983810800430186, 0.9976363855059946,0.00023192605526041682,-0.1125946044921875,-0.230987548828125,-0.987060546875
20230215-1541,2023-02-15 15:41:06Z,u02, 4,100,movements,el-ex, lt, nd,281638.02978341666, -0.12029266459675254, 0.06439646813561753, 0.003915057258874166, -0.1667458862066269, 0.007292632944881916, -0.03501030057668686, -0.11975403130054474, -0.06435196846723557, -0.9907158017158508, -0.04362194240093231, 0.10091196000576019, 0.030098795890808105, 0.03225200420147811, -0.06001590130268945, 0.9976762190023761,1.7874634299975146e-05,-0.1612091064453125,-0.094757080078125,-0.9573974609375
20230215-1541,2023-02-15 15:41:06Z,u02, 5,100,movements,el-ex, lt, nd,281638.03980641667, -0.1201874450216706, 0.06357366620764683, 0.00347489067384416, -0.016274427995085716, 0.01140828151255846, -0.03818542882800102, -0.11965609341859818, -0.06353085488080978, -0.9907806515693665, -0.042148225009441376, 0.12722095847129822, 0.010998547077178955, 0.03182835762937669, -0.05997201076422861, 0.9976924996249019,-0.00017528308133152619,-0.1647186279296875,0.005035400390625,-0.9501190185546875
20230215-1541,2023-02-15 15:41:06Z,u02, 6,100,movements,el-ex, lt, nd,281638.0498294167, -0.12010343061626187, 0.06382982508406074, 0.0030688916987211636, 0.046602003276348114, 0.005006309133023024, -0.0541289746761322, -0.11957089602947235, -0.06378649175167084, -0.9907745122909546, -0.0353211835026741, 0.10442057251930237, 0.00284421443939209, 0.03194398116075361, -0.05993611843481792, 0.997690920255443,-0.0003841666578877031,-0.161285400390625,0.0563812255859375,-0.9698028564453125
20230215-1541,2023-02-15 15:41:06Z,u02, 7,100,movements,el-ex, lt, nd,281638.0598524167, -0.12005398503431067, 0.06441138324141327, 0.0024905722436236095, 0.049168530851602554, 0.0010736192343756557, -0.07420063763856888, -0.11951744556427002, -0.06436685472726822, -0.9907433986663818, -0.02248096466064453, 0.05992648005485535, 0.015401601791381836, 0.03221677246883965, -0.0599197701357317, 0.9976829085610694,-0.0006893163177224713,-0.159759521484375,0.0596466064453125,-0.9875335693359375
20230215-1541,2023-02-15 15:41:06Z,u02, 8,100,movements,el-ex, lt, nd,281638.0698754167, -0.1200094946294301, 0.06476721017671819, 0.0017474189077704763, -0.0018922565504908562, 0.0010975876357406378, -0.07757725566625595, -0.11947061866521835, -0.06472194194793701, -0.9907259345054626, -0.011541463434696198, 0.03400592505931854, 0.013400495052337646, 0.03237202808037835, -0.05990904144718897, 0.9976782304455445,-0.0010699842927121533,-0.1491546630859375,0.0185394287109375,-0.982025146484375
20230215-1541,2023-02-15 15:41:06Z,u02, 9,100,movements,el-ex, lt, nd,281638.0798994167, -0.11994183649070496, 0.06460112759252568, 0.0009326101635602943, -0.046745311468839645, 9.650538413552567e-05, -0.0801817998290062, -0.1194048747420311, -0.06455620378255844, -0.9907446503639221, -0.009089499711990356, 0.03541184961795807, 0.010001301765441895, 0.03226481862402911, -0.059888672305712314, 0.9976824452475705,-0.0014703724823742414,-0.1374359130859375,-0.0204925537109375,-0.9731903076171875
20230215-1541,2023-02-15 15:41:06Z,u02, 10,100,movements,el-ex, lt, nd,281638.08992241666, -0.11992239311809735, 0.06426207550519715, 5.285512016935357e-05, -0.035905446857213974, -0.009336411021649837, -0.0807810127735138, -0.11938822269439697, -0.06421785801649094, -0.9907686710357666, -0.005642414093017578, 0.03763697296380997, 0.0035250186920166016, 0.03206935903072553, -0.05989349573674791, 0.9976876650392997,-0.0018987635847757106,-0.1290130615234375,-0.0327301025390625,-0.980133056640625
20230215-1541,2023-02-15 15:41:06Z,u02, 11,100,movements,el-ex, lt, nd,281638.0999454167, -0.1199758167985821, 0.06413398931014447, -0.0007966588866760385, -0.011594684794545174, -0.011377990245819092, -0.08226383477449417, -0.11944213509559631, -0.06409003585577011, -0.9907704591751099, -0.004215218126773834, 0.03874511271715164, 0.0035268068313598633, 0.03197995826984072, -0.0599338586561334, 0.9976872407883199,-0.0023195573603896967,-0.1273651123046875,-0.0272674560546875,-0.982513427734375
20230215-1541,2023-02-15 15:41:06Z,u02, 12,100,movements,el-ex, lt, nd,281638.1099684167, -0.11998989330166226, 0.06409909837723074, -0.0016862836473170585, -0.01747814007103443, -0.0042849271558225155, -0.09398120641708374, -0.11945635080337524, -0.06405521184206009, -0.9907709956169128, -0.012257635593414307, 0.04940670728683472, 0.012652099132537842, 0.03193586996919307, -0.05995511634055851, 0.9976862859444307,-0.00276252039364877,-0.1240234375,-0.0262298583984375,-0.989044189453125
20230215-1541,2023-02-15 15:41:06Z,u02, 13,100,movements,el-ex, lt, nd,281638.1199914167, -0.11993812354045938, 0.06405607958684499, -0.002671777860968562, -0.012651996687054634, 0.006131494417786598, -0.09546490758657455, -0.11940538138151169, -0.06401228159666061, -0.9907798767089844, -0.02079247683286667, 0.05386511981487274, 0.01026540994644165, 0.03188495094168277, -0.059945038854044834, 0.9976869468189832,-0.0032520142888526164,-0.127105712890625,-0.0222930908203125,-0.9821624755859375
20230215-1541,2023-02-15 15:41:06Z,u02, 14,100,movements,el-ex, lt, nd,281638.1300144167, -0.11977620612717359, 0.06405846800926877, -0.0035710121782416976, -0.01088312454521656, 0.01119363121688366, -0.08251289278268814, -0.11924494057893753, -0.06401466578245163, -0.990799069404602, -0.01814531534910202, 0.04443756490945816, 0.004516720771789551, 0.031859485727585346, -0.05987859595066464, 0.9976902163912074,-0.003698083198554322,-0.1363372802734375,-0.00982666015625,-0.97796630859375
20230215-1541,2023-02-15 15:41:06Z,u02, 15,100,movements,el-ex, lt, nd,281638.14003741666, -0.1196374858471916, 0.06401332286920937, -0.004378233420765038, -0.014467379078269005, 0.005130678880959749, -0.07682552933692932, -0.11910784244537354, -0.06396961212158203, -0.990818440914154, -0.006411075592041016, 0.04469769448041916, -0.008967876434326172, 0.0318130784805188, -0.059822242540579655, 0.9976935401895686,-0.004097205821654331,-0.140167236328125,-0.01458740234375,-0.982421875
20230215-1541,2023-02-15 15:41:06Z,u02, 16,100,movements,el-ex, lt, nd,281638.15005987504, -0.12767172170227356, 0.04268193717863748, -0.004767648071700216, -0.012339780107140541, -0.01714746095240116, -0.08131801337003708, -0.12720920145511627, -0.04266897961497307, -0.9909576773643494, 0.01986350119113922, 0.0297141931951046, -0.01368093490600586, 0.02114378942881693, -0.06382857533837595, 0.9977298124160051,-0.0037397117833064945,-0.1329193115234375,-0.0211944580078125,-0.992584228515625
20230215-1541,2023-02-15 15:41:06Z,u02, 17,100,movements,el-ex, lt, nd,281638.160083875, -0.12940226337473487, 0.03430578306003607, -0.005546501490130891, -0.040516480803489685, -0.03575736656785011, -0.08145298063755035, -0.12896549701690674, -0.03429905325174332, -0.9910557270050049, 0.02934075891971588, 0.032925695180892944, -2.562999725341797e-06, 0.016936815809980653, -0.0646937086852679, 0.9977538603919337,-0.0038760162948879634,-0.1157073974609375,-0.0157470703125,-1.00616455078125
20230215-1541,2023-02-15 15:41:06Z,u02, 18,100,movements,el-ex, lt, nd,281638.170106875, -0.12740907839830734, 0.0290498019472552, -0.006530448953828417, -0.051646098494529724, -0.04694636911153793, -0.09060626477003098, -0.12701104581356049, -0.029045715928077698, -0.9914759397506714, 0.01862776279449463, 0.027626575902104378, 0.010396897792816162, 0.01428700409840117, -0.06370173290123451, 0.9978579613507332,-0.004182890460456449,-0.1011199951171875,-0.006317138671875,-0.9994659423828125
20230215-1541,2023-02-15 15:41:06Z,u02, 19,100,movements,el-ex, lt, nd,281638.180129875, -0.12660984351573412, 0.027318438959631316, -0.0074788411981342355, -0.03999117389321327, -0.049357328563928604, -0.07956930249929428, -0.12622474133968353, -0.027315041050314903, -0.9916255474090576, -0.0007742792367935181, 0.001924341544508934, 0.011461973190307617, 0.013394797252079751, -0.06330728043845214, 0.9978935579260461,-0.004595659155732816,-0.102783203125,0.0008392333984375,-0.9868927001953125
20230215-1541,2023-02-15 15:41:06Z,u02, 20,100,movements,el-ex, lt, nd,281638.19015287503, -0.12929741853991064, 0.02312123272922301, -0.008211928457216156, -0.06019071862101555, -0.062070462852716446, -0.06977605819702148, -0.12890300154685974, -0.02311917208135128, -0.991387665271759, -0.01149323582649231, -0.01659952849149704, 0.01720559597015381, 0.011270870953860394, -0.0646461968396489, 0.9978327550531347,-0.004843937576527466,-0.116790771484375,-0.0119171142578125,-0.979583740234375
20230215-1541,2023-02-15 15:41:06Z,u02, 21,100,movements,el-ex, lt, nd,281638.20017587504, -0.13418794634446826, 0.018221923069166885, -0.008895603301696732, -0.0829852968454361, -0.07238834351301193, -0.06584195792675018, -0.133763387799263, -0.018220914527773857, -0.990845799446106, -0.01505570113658905, -0.01969725266098976, 0.021088719367980957, 0.008792062982579585, -0.06708063123680978, 0.9976960621902609,-0.005048412964487261,-0.133819580078125,-0.035552978515625,-0.9774017333984375
20230215-1541,2023-02-15 15:41:06Z,u02, 22,100,movements,el-ex, lt, nd,281638.210198875, -0.13603180166644513, 0.01792479649484862, -0.009563841166465739, -0.08581490814685822, -0.0977480337023735, -0.04937536641955376, -0.13559086620807648, -0.017923837527632713, -0.9906027913093567, -0.013319775462150574, -0.022603582590818405, 0.01841956377029419, 0.00861647217298168, -0.06800272414174402, 0.9976333889313864,-0.005379754873884336,-0.1439666748046875,-0.039520263671875,-0.96978759765625
20230215-1541,2023-02-15 15:41:06Z,u02, 23,100,movements,el-ex, lt, nd,281638.220221875, -0.13477845793641294, 0.017296136394342358, -0.010188427572213752, -0.11309420317411423, -0.13125485181808472, -0.04258084297180176, -0.13435068726539612, -0.017295274883508682, -0.9907829165458679, -0.006701663136482239, -0.016960781067609787, 0.036254167556762695, 0.008285198289969478, -0.06737879721936324, 0.9976769842868126,-0.005664769746876262,-0.15130615234375,-0.03839111328125,-0.9726104736328125
20230215-1541,2023-02-15 15:41:06Z,u02, 24,100,movements,el-ex, lt, nd,281638.230244875, -0.13218382418215807, 0.01547989886669874, -0.010774866635278617, -0.15325573086738586, -0.15204109251499176, -0.02863733097910881, -0.13178344070911407, -0.01547928061336279, -0.9911576509475708, -0.010703250765800476, -0.0022667665034532547, 0.062324702739715576, 0.007367067541092425, -0.06608247590710362, 0.9977696087472631,-0.00588664720056805,-0.1441192626953125,-0.0390625,-0.9658660888671875
20230215-1541,2023-02-15 15:41:06Z,u02, 25,100,movements,el-ex, lt, nd,281638.24026887503, -0.13066010401923728, 0.012574111329297172, -0.011217774882381867, -0.1879723221063614, -0.17608492076396942, -0.004341790918260813, -0.1302783489227295, -0.012573779560625553, -0.9913977384567261, -0.019334182143211365, 0.003403172828257084, 0.06505197286605835, 0.005907344903192939, -0.06531646422367544, 0.9978289809322479,-0.006007215076093055,-0.1422882080078125,-0.026397705078125,-0.9408416748046875
20230215-1541,2023-02-15 15:41:06Z,u02, 26,100,movements,el-ex, lt, nd,281638.25029187504, -0.13097530904088023, 0.00976233268919914, -0.011461601683924735, -0.22625046968460083, -0.21313907206058502, 0.014701141975820065, -0.13059493899345398, -0.009762177243828773, -0.9913877248764038, -0.02327480912208557, 0.00469618383795023, 0.045587003231048584, 0.004495582234548215, -0.06546691840656098, 0.9978262841103287,-0.006037838756307607,-0.1440582275390625,-0.0123138427734375,-0.9235382080078125
20230215-1541,2023-02-15 15:41:06Z,u02, 27,100,movements,el-ex, lt, nd,281638.260314875, -0.13311192511490708, 0.008338134421223102, -0.01155698128765962, -0.2660987079143524, -0.2577454149723053, 0.034968409687280655, -0.13271456956863403, -0.008338037878274918, -0.9911192059516907, -0.01570780575275421, 0.0013952124863862991, 0.03997790813446045, 0.0037754516147292306, -0.06652918536454992, 0.9977590376098217,-0.00604288073291403,-0.1545867919921875,-0.00701904296875,-0.9369049072265625
20230215-1541,2023-02-15 15:41:06Z,u02, 28,100,movements,el-ex, lt, nd,281638.270337875, -0.13630149768118932, 0.007331486017373095, -0.011487800734058931, -0.2819330394268036, -0.300917387008667, 0.05047306790947914, -0.13587619364261627, -0.007331420201808214, -0.9906986951828003, -0.004275873303413391, -0.011375930160284042, 0.04439443349838257, 0.003266021567241249, -0.06811743183818424, 0.9976540468009014,-0.005980121753233125,-0.151275634765625,-0.0048370361328125,-0.950531005859375
20230215-1541,2023-02-15 15:41:06Z,u02, 29,100,movements,el-ex, lt, nd,281638.280360875, -0.14012899818963293, 0.00559577412815106, -0.011361604312946253, -0.3341745138168335, -0.3497736155986786, 0.05645322427153587, -0.13966865837574005, -0.005595745053142309, -0.9901824593544006, 0.0009356290102005005, -0.014820590615272522, 0.05864870548248291, 0.0023932804865594752, -0.07002164170484249, 0.9975253466464931,-0.005862680530834311,-0.144622802734375,-0.0126800537109375,-0.9492645263671875
20230215-1541,2023-02-15 15:41:06Z,u02, 30,100,movements,el-ex, lt, nd,281638.290383875, -0.14418514611413974, 0.003092634135929748, -0.011252307308006209, -0.3790692687034607, -0.3972199559211731, 0.07001164555549622, -0.14368538558483124, -0.003092629136517644, -0.9896185994148254, -0.007239416241645813, -0.024464819580316544, 0.08947211503982544, 0.0011370254203329619, -0.0720375971227837, 0.9973847797426343,-0.0057228832038074325,-0.1377105712890625,-0.0217132568359375,-0.942840576171875
20230215-1541,2023-02-15 15:41:06Z,u02, 31,100,movements,el-ex, lt, nd,281638.30040687503, -0.14833775754376, -9.351481706164179e-05, -0.010965088269187965, -0.38724324107170105, -0.42627930641174316, 0.10472061485052109, -0.14779435098171234, 9.3514820036944e-05, -0.9890180826187134, -0.03579951822757721, -0.05815328285098076, 0.12769001722335815, -0.00045288753590052666, -0.07409952585524668, 0.9972357993436239,-0.00546397903010585,-0.1418914794921875,-0.0220489501953125,-0.918426513671875
20230215-1541,2023-02-15 15:41:06Z,u02, 32,100,movements,el-ex, lt, nd,281638.310430875, -0.1526346680073218, -0.004412659704360294, -0.010462871869535961, -0.4580276608467102, -0.4302242398262024, 0.12469112873077393, -0.1520412117242813, 0.004412645474076271, -0.9883642792701721, -0.08099113404750824, -0.07136828452348709, 0.1388922929763794, -0.002598734976354778, -0.07623053716036704, 0.9970740272609061,-0.005047956775869094,-0.1657867431640625,-0.0417633056640625,-0.878662109375
20230215-1541,2023-02-15 15:41:06Z,u02, 33,100,movements,el-ex, lt, nd,281638.320453875, -0.15675193545940966, -0.009624123451109613, -0.009982545100720339, -0.5506383180618286, -0.383963018655777, 0.12858834862709045, -0.15610356628894806, 0.009623974561691284, -0.9876937866210938, -0.12397162616252899, -0.03315310180187225, 0.13091284036636353, -0.005188001214242914, -0.07826993358823933, 0.9969079836275655,-0.004599114530303634,-0.2068939208984375,-0.06890869140625,-0.853118896484375
20230215-1541,2023-02-15 15:41:06Z,u02, 35,100,movements,el-ex, lt, nd,281638.340499875, -0.16331050855308127, -0.02050862289413111, -0.009237459003511075, -0.4887038469314575, -0.30925068259239197, 0.10715043544769287, -0.16255135834217072, 0.02050718478858471, -0.9864869713783264, -0.04390016198158264, 0.03691156208515167, -0.000375211238861084, -0.010596560857406795, -0.08151218876498142, 0.9966088187942919,-0.003766717288035644,-0.259918212890625,-0.048736572265625,-0.8490447998046875
20230215-1541,2023-02-15 15:41:06Z,u02, 35,100,movements,el-ex, lt, nd,281638.330476875, -0.1602218876213096, -0.015287655970470002, -0.00957411885601099, -0.5366742610931396, -0.31334424018859863, 0.12672919034957886, -0.15951861441135406, 0.015287060290575027, -0.9870765805244446, -0.11921380460262299, 0.011675143614411354, 0.06936722993850708, -0.008002224699879852, -0.07998555508201648, 0.9967552086443577,-0.0041598624179267725,-0.2886505126953125,0.00299072265625,-0.878570556640625
20230215-1541,2023-02-15 15:41:06Z,u02, 37,100,movements,el-ex, lt, nd,281638.36054587504, -0.16987096668779675, -0.029713325554377803, -0.00966186283907088, -0.37913012504577637, -0.3151210844516754, -0.02366129495203495, -0.16898055374622345, 0.029708953574299812, -0.9851715564727783, 0.0519607812166214, 0.02099592611193657, -0.03480219841003418, -0.01521216864976185, -0.08475154604976529, 0.996279544263122,-0.003552686678117867,-0.2495880126953125,0.0457916259765625,-0.9607086181640625
20230215-1541,2023-02-15 15:41:06Z,u02, 37,100,movements,el-ex, lt, nd,281638.35052287503, -0.16655098197291582, -0.025435771715792026, -0.009166712513336013, -0.4758346676826477, -0.33323004841804504, 0.0669763833284378, -0.16572842001914978, 0.025433029979467392, -0.9858434200286865, 0.03232073783874512, 0.04170556366443634, -0.012859523296356201, -0.013054547410563768, -0.08311359201696487, 0.996448331211537,-0.0035092629142673606,-0.1639862060546875,0.0662078857421875,-0.994293212890625
20230215-1541,2023-02-15 15:41:06Z,u02, 38,100,movements,el-ex, lt, nd,281638.370568875, -0.1727629247374738, -0.0331960937650181, -0.010699389677314873, -0.3582240343093872, -0.2602975368499756, -0.06072051078081131, -0.1718100905418396, 0.03318999707698822, -0.9845708012580872, 0.03814297914505005, 0.011274036020040512, -0.08874762058258057, -0.01699663954020787, -0.08617250453597768, 0.99612755133584,-0.0038970937638773085,-0.1181182861328125,0.060821533203125,-1.0048828125
20230215-1541,2023-02-15 15:41:06Z,u02, 39,100,movements,el-ex, lt, nd,281638.380591875, -0.17527957442464748, -0.03662991374519722, -0.01214381027702958, -0.35992395877838135, -0.24479900300502777, -0.09253668785095215, -0.17426645755767822, 0.03662172332406044, -0.9840173125267029, 0.036723628640174866, 0.03822255879640579, -0.17394167184829712, -0.018774676651634136, -0.08740057507084377, 0.9959863908703402,-0.004444604332966593,-0.126556396484375,0.0435943603515625,-1.0404815673828125
20230215-1541,2023-02-15 15:41:06Z,u02, 40,100,movements,el-ex, lt, nd,281638.390615875, -0.1780031162352127, -0.03966360738731659, -0.013584302076386211, -0.26905450224876404, -0.2795700132846832, -0.08282813429832458, -0.17692533135414124, 0.03965320810675621, -0.9834251403808594, 0.051131755113601685, 0.03430606424808502, -0.13113778829574585, -0.02035514889613617, -0.08873041557928509, 0.9958351348831237,-0.005001309254562633,-0.1367645263671875,0.0552825927734375,-1.1248626708984375
20230215-1541,2023-02-15 15:41:06Z,u02, 41,100,movements,el-ex, lt, nd,281638.400638875, -0.18075663533739544, -0.041552077208937714, -0.014796102505138246, -0.15899081528186798, -0.2506355941295624, -0.09475483000278473, -0.17961876094341278, 0.04154011979699135, -0.9828588366508484, 0.04325084388256073, -0.00015836209058761597, -0.07175230979919434, -0.021356754277125155, -0.09008032342969843, 0.9956902992910839,-0.005491238085073399,-0.13128662109375,0.082977294921875,-1.1510009765625
20230215-1541,2023-02-15 15:41:06Z,u02, 42,100,movements,el-ex, lt, nd,281638.41066187504, -0.1829750965828491, -0.043158658280972144, -0.01623339090299721, -0.226924866437912, -0.17532537877559662, -0.12956340610980988, -0.18178637325763702, 0.04314526170492172, -0.9823910593986511, 0.01783059537410736, 0.005698040127754211, -0.0044863224029541016, -0.022228068946592655, -0.09116129732679472, 0.9955692328606806,-0.006109511329349087,-0.125152587890625,0.056915283203125,-1.080718994140625
20230215-1541,2023-02-15 15:41:06Z,u02, 43,100,movements,el-ex, lt, nd,281638.420684875, -0.18438617835097, -0.04554342680311691, -0.018268416775082775, -0.29801028966903687, -0.07978740334510803, -0.18347056210041046, -0.18315303325653076, 0.045527685433626175, -0.9820296168327332, 0.0013444572687149048, 0.023121528327465057, 0.03429102897644043, -0.02351279217278051, -0.09182774549290475, 0.9954726078667808,-0.006996779857045979,-0.1505889892578125,0.038360595703125,-1.026214599609375
20230215-1541,2023-02-15 15:41:06Z,u02, 44,100,movements,el-ex, lt, nd,281638.430707875, -0.18490375219302513, -0.047558466967654006, -0.020748546744744533, -0.16774600744247437, -0.004227935802191496, -0.23071637749671936, -0.18364404141902924, 0.04754054173827171, -0.9818425178527832, -0.014598265290260315, 0.02318386733531952, -0.05204719305038452, -0.024631645205195406, -0.09204355872621256, 0.9954169861305104,-0.008131884030251647,-0.1735076904296875,0.0596923828125,-0.9538726806640625
20230215-1541,2023-02-15 15:41:06Z,u02, 45,100,movements,el-ex, lt, nd,281638.440730875, -0.1848618016172875, -0.048155321864299425, -0.02320215905232424, -0.051291707903146744, 0.025846343487501144, -0.22429034113883972, -0.1835976094007492, 0.04813671112060547, -0.9818221926689148, -0.0020714402198791504, 0.031651414930820465, -0.1530655026435852, -0.025041391099191436, -0.09198828753050903, 0.9954013950357207,-0.009325963130123077,-0.19036865234375,0.07275390625,-0.97137451171875
20230215-1541,2023-02-15 15:41:06Z,u02, 46,100,movements,el-ex, lt, nd,281638.450753875, -0.1847159970379339, -0.048030354820615795, -0.02537148069289902, -0.008750637993216515, 0.027474600821733475, -0.20674437284469604, -0.18345555663108826, 0.048011891543865204, -0.9818548560142517, 0.026625603437423706, 0.04354076087474823, -0.1470971703529358, -0.025078201320640595, -0.09188943305151265, 0.9953988183176833,-0.01041324283396479,-0.196044921875,0.0737152099609375,-1.10009765625
20230215-1541,2023-02-15 15:41:06Z,u02, 47,100,movements,el-ex, lt, nd,281638.46077787504, -0.18445650835048513, -0.047773310928112246, -0.02747190463047468, -0.024098683148622513, 0.04732580482959747, -0.2178163379430771, -0.18320302665233612, 0.04775514081120491, -0.9819145202636719, 0.04187600314617157, 0.046010036021471024, -0.09813308715820312, -0.02504527924416948, -0.09173593357281574, 0.9954022073766241,-0.011473756737921816,-0.170989990234375,0.086181640625,-1.141937255859375
20230215-1541,2023-02-15 15:41:06Z,u02, 48,100,movements,el-ex, lt, nd,281638.47080087505, -0.18403418605415242, -0.0477642623786973, -0.02987948492243378, -0.05868515744805336, 0.0570567287504673, -0.2535721957683563, -0.1827884018421173, 0.04774610325694084, -0.9819921851158142, 0.05496542155742645, 0.03698587417602539, -0.08285760879516602, -0.02514851126646074, -0.0914956024627507, 0.9954071559490093,-0.012677732050750384,-0.14862060546875,0.093353271484375,-1.105194091796875
20230215-1541,2023-02-15 15:41:06Z,u02, 49,100,movements,el-ex, lt, nd,281638.480823875, -0.18373673630933596, -0.047836904120854534, -0.03265300713018846, -0.053147491067647934, 0.025923842564225197, -0.28128761053085327, -0.18249566853046417, 0.047818660736083984, -0.9820431470870972, 0.06971783936023712, 0.01259080320596695, -0.08552277088165283, -0.02530942910438648, -0.09131192741582299, 0.9954014237603469,-0.014058525242804432,-0.13458251953125,0.091033935546875,-1.06610107421875
20230215-1541,2023-02-15 15:41:06Z,u02, 50,100,movements,el-ex, lt, nd,281638.490846875, -0.18375453447188378, -0.04774344612134736, -0.03543243869440219, -0.03337884694337845, -0.0006041722372174263, -0.2709803879261017, -0.18251396715641022, 0.04772530868649483, -0.9820442795753479, 0.058246269822120667, -0.013255789875984192, -0.0938071608543396, -0.025389930610841674, -0.09128645227665728, 0.9953811319880347,-0.01544591510043318,-0.11932373046875,0.07452392578125,-1.065887451171875
20230215-1541,2023-02-15 15:41:07Z,u02, 51,100,movements,el-ex, lt, nd,281638.500869875, -0.18379245821266305, -0.047503347914274345, -0.03806598479890927, -0.013515299186110497, 0.021563448011875153, -0.25673457980155945, -0.18255329132080078, 0.047485485672950745, -0.9820485711097717, 0.020581141114234924, -0.01086447387933731, -0.063010573387146, -0.02539094987418851, -0.09127435742689566, 0.9953607621379448,-0.01676717508078116,-0.113433837890625,0.0459747314453125,-1.070892333984375
20230215-1541,2023-02-15 15:41:07Z,u02, 52,100,movements,el-ex, lt, nd,281638.510892875, -0.1834466125587931, -0.04704189762565318, -0.040596605169738315, 0.015259889885783195, 0.07053685188293457, -0.2553715705871582, -0.18221762776374817, 0.047024548053741455, -0.9821330904960632, -0.010150015354156494, 0.00740346685051918, -0.017332792282104492, -0.02527366752020036, -0.09107519658029607, 0.9953595535883184,-0.0180522445714647,-0.1424407958984375,0.0308074951171875,-1.068511962890625
20230215-1541,2023-02-15 15:41:07Z,u02, 53,100,movements,el-ex, lt, nd,281638.52091587504, -0.18275109249826121, -0.046132682294478686, -0.043066135194213755, 0.07987748086452484, 0.09048818796873093, -0.25642451643943787, -0.18154218792915344, 0.04611632227897644, -0.9823012351989746, -0.02312403917312622, 0.014186330139636993, -0.025679051876068115, -0.024926934349397956, -0.09070848414530373, 0.9953777896282688,-0.019331780687633835,-0.1793212890625,0.045379638671875,-1.0175018310546875
20230215-1541,2023-02-15 15:41:07Z,u02, 54,100,movements,el-ex, lt, nd,281638.530938875, -0.18195595500600073, -0.04443675632825513, -0.04528392341673584, 0.17141032218933105, 0.08301322907209396, -0.24129614233970642, -0.18077495694160461, 0.04442213475704193, -0.9825207591056824, -0.010249942541122437, -0.003574434667825699, -0.06270623207092285, -0.02417539566763338, -0.09030591746979866, 0.9954090550296305,-0.02052291903310669,-0.2005157470703125,0.060302734375,-0.9969635009765625
20230215-1541,2023-02-15 15:41:07Z,u02, 55,100,movements,el-ex, lt, nd,281638.540962875, -0.181432792523237, -0.04204260527196517, -0.04723512779621185, 0.22619785368442535, 0.03546115383505821, -0.2257416546344757, -0.18027958273887634, 0.042030218988657, -0.9827170372009277, 0.019390806555747986, -0.021598786115646362, -0.08242273330688477, -0.023066377145981903, -0.09005240260973076, 0.9954353290022004,-0.021609377334994104,-0.2019805908203125,0.0520782470703125,-1.024658203125
20230215-1541,2023-02-15 15:41:07Z,u02, 56,100,movements,el-ex, lt, nd,281638.550985875, -0.18136627789307308, -0.03926270503985536, -0.04893932548189945, 0.2499963939189911, -0.00425137160345912, -0.20653760433197021, -0.18023459613323212, 0.039252616465091705, -0.9828401207923889, 0.03440624475479126, -0.011146016418933868, -0.08806741237640381, -0.021758879614731417, -0.09003602993721016, 0.995444586672931,-0.02258484559212376,-0.175933837890625,0.0297088623046875,-1.0631256103515625
20230215-1541,2023-02-15 15:41:07Z,u02, 57,100,movements,el-ex, lt, nd,281638.561008875, -0.18150501258006485, -0.036643206124126894, -0.050514469456159804, 0.19678586721420288, -0.009240271523594856, -0.19358545541763306, -0.1803888976573944, 0.036635007709264755, -0.9829128980636597, 0.025130614638328552, 0.04156620800495148, -0.07481110095977783, -0.02052775199110883, -0.09012310251989074, 0.9954419829628776,-0.023486574426308318,-0.149810791015625,0.0180816650390625,-1.063934326171875
20230215-1541,2023-02-15 15:41:07Z,u02, 58,100,movements,el-ex, lt, nd,281638.57103187504, -0.1817174771040899, -0.03470263600606896, -0.05195065723745101, 0.17685078084468842, -0.0196087546646595, -0.14750051498413086, -0.18061022460460663, 0.03469567000865936, -0.9829425811767578, 0.009711682796478271, 0.06012235954403877, -0.06681627035140991, -0.019629271027636504, -0.09024074302271166, 0.9954302653801117,-0.024287642173458933,-0.14837646484375,0.0504913330078125,-1.0743865966796875
20230215-1541,2023-02-15 15:41:07Z,u02, 59,100,movements,el-ex, lt, nd,281638.58105487505, -0.18189409040510052, -0.029763628726417406, -0.051869146302836094, 0.837174117565155, -0.02495425194501877, -0.011746764183044434, -0.18081262707710266, 0.029759233817458153, -0.9830672144889832, 0.01848950982093811, -0.11615458130836487, -0.07715916633605957, -0.01716967664370347, -0.0903968215390229, 0.9954571207955863,-0.02447054678405236,-0.1632537841796875,0.096221923828125,-1.040740966796875
20230215-1541,2023-02-15 15:41:07Z,u02, 60,100,movements,el-ex, lt, nd,281638.591077875, -0.18253153061920804, -0.020913764433416727, -0.05012154383208618, 0.8348597884178162, -0.12477991729974747, 0.008348917588591576, -0.18147993087768555, 0.02091223932802677, -0.9831722974777222, 0.04291476309299469, -0.2291184961795807, -0.10497772693634033, -0.012693555739671777, -0.09084458559335905, 0.9954949190267115,-0.02399978245399804,-0.1732635498046875,0.0346221923828125,-1.0623931884765625
20230215-1541,2023-02-15 15:41:07Z,u02, 61,100,movements,el-ex, lt, nd,281638.601100875, -0.18422892277651057, -0.013986656328577223, -0.04925598940284044, 0.6247856616973877, -0.19402503967285156, -0.09175323694944382, -0.1831706464290619, 0.013986200094223022, -0.9829816222190857, -0.013103276491165161, -0.09926765412092209, 0.009074211120605469, -0.009226614646392725, -0.09178262590000809, 0.9954499754502583,-0.023877429401061846,-0.1462860107421875,-0.191253662109375,-1.0857391357421875
20230215-1541,2023-02-15 15:41:07Z,u02, 62,100,movements,el-ex, lt, nd,281638.611123875, -0.18542764798949654, -0.006520050315437847, -0.04886403147838537, 0.8642280697822571, -0.01715278811752796, -0.08624022454023361, -0.18436294794082642, 0.006520004011690617, -0.9828366041183472, -0.14438776671886444, -0.008534246124327183, 0.11448949575424194, -0.005506754326751307, -0.09247363633137434, 0.995410045165197,-0.02402280910884342,-0.1524505615234375,-0.1546173095703125,-1.037261962890625
20230215-1541,2023-02-15 15:41:07Z,u02, 63,100,movements,el-ex, lt, nd,281638.62114787503, -0.18446883465042105, 0.0022896919462504746, -0.047481394132253496, 0.8649094104766846, 0.19418369233608246, 0.03277130424976349, -0.18342392146587372, -0.0022896898444741964, -0.9830312132835388, -0.19633693993091583, 0.11804278194904327, 0.1219015121459961, -0.0010467414822331001, -0.09210475295737207, 0.9954655599894227,-0.02374296654992032,-0.2632904052734375,-0.035308837890625,-0.9134979248046875
20230215-1541,2023-02-15 15:41:07Z,u02, 64,100,movements,el-ex, lt, nd,281638.63117087504, -0.18187676410606846, 0.010234784889092663, -0.04541930266362091, 0.7952909469604492, 0.3224327266216278, 0.06465626507997513, -0.18086622655391693, -0.010234606452286243, -0.9834544658660889, -0.16395200788974762, 0.298534095287323, 0.15311694145202637, 0.0030327813904404474, -0.09090421231975541, 0.9955875735592007,-0.023078178491298534,-0.3689422607421875,0.0413970947265625,-0.855438232421875
20230215-1541,2023-02-15 15:41:07Z,u02, 65,100,movements,el-ex, lt, nd,281638.641193875, -0.17816663080752176, 0.018500055771652243, -0.04337579268751721, 0.8867738246917725, 0.4148412346839905, 0.0411238819360733, -0.17719519138336182, -0.018498999997973442, -0.984001874923706, -0.09805820882320404, 0.3613791763782501, 0.13575053215026855, 0.007281809130755762, -0.08914060853117299, 0.9957400243248793,-0.022422008180254572,-0.368255615234375,0.2076873779296875,-0.8553314208984375
20230215-1541,2023-02-15 15:41:07Z,u02, 66,100,movements,el-ex, lt, nd,281638.651216875, -0.17391464948663599, 0.02676779157131304, -0.04160124321512185, 0.8031455278396606, 0.4324207603931427, 0.019826315343379974, -0.1729772686958313, -0.02676459588110447, -0.98456209897995, -0.03251294791698456, 0.33422911167144775, 0.05785012245178223, 0.011523848223558392, -0.08709852898214832, 0.995892673308045,-0.021880754567219794,-0.3125,0.3339385986328125,-0.8192596435546875
20230215-1541,2023-02-15 15:41:07Z,u02, 67,100,movements,el-ex, lt, nd,281638.661239875, -0.1697151479423747, 0.034917720784136796, -0.03998027383575662, 0.8727271556854248, 0.4158947765827179, 0.024443037807941437, -0.16879864037036896, -0.03491062670946121, -0.9850321412086487, -0.023813173174858093, 0.23025356233119965, 0.06863504648208618, 0.015697771372179415, -0.08507362927083408, 0.996021290523041,-0.02139321368609404,-0.2365570068359375,0.33123779296875,-0.8985443115234375
20230215-1541,2023-02-15 15:41:07Z,u02, 68,100,movements,el-ex, lt, nd,281638.671262875, -0.16506594256162666, 0.0441912621195438, -0.03789032077900581, 1.021834373474121, 0.5474410653114319, 0.08719803392887115, -0.1641569584608078, -0.04417688027024269, -0.9854444861412048, -0.04603296518325806, 0.06386063992977142, 0.11052083969116211, 0.020453326283601463, -0.0828215181191573, 0.996139448814489,-0.020696009802800938,-0.1913604736328125,0.26446533203125,-0.9313812255859375
20230215-1541,2023-02-15 15:41:07Z,u02, 69,100,movements,el-ex, lt, nd,281638.68128587503, -0.159363530177584, 0.05460205031162861, -0.034920259072854426, 1.1320301294326782, 0.6126099228858948, 0.16086134314537048, -0.1584533303976059, -0.05457492172718048, -0.9858570694923401, -0.06748366355895996, 0.013162493705749512, 0.03894239664077759, 0.02581767952118949, -0.08003076662596474, 0.9962657997818878,-0.01956985170977967,-0.2019805908203125,0.1051483154296875,-0.87908935546875
20230215-1541,2023-02-15 15:41:07Z,u02, 70,100,movements,el-ex, lt, nd,281638.691309875, -0.15312659516001317, 0.06670967032204281, -0.030813763068697767, 1.4087318181991577, 0.6796486377716064, 0.2760965824127197, -0.15218961238861084, -0.06666020303964615, -0.9861007928848267, -0.05597089231014252, 0.03232785314321518, 0.02694857120513916, 0.032069262731984204, -0.07694917893490119, 0.9963582351087599,-0.017903082224184408,-0.2209930419921875,-0.02850341796875,-0.9224090576171875
20230215-1541,2023-02-15 15:41:07Z,u02, 71,100,movements,el-ex, lt, nd,281638.701332875, -0.14653107280710329, 0.08140033694192964, -0.025345325329776493, 1.583673119544983, 0.7140223383903503, 0.33799609541893005, -0.1455238163471222, -0.08131047338247299, -0.986007809638977, -0.03660520911216736, 0.16004575788974762, -0.018737614154815674, 0.03964967231251664, -0.07364775714004222, 0.9963735798380543,-0.015606052501849025,-0.221588134765625,-0.0420684814453125,-0.9360504150390625
20230215-1541,2023-02-15 15:41:07Z,u02, 72,100,movements,el-ex, lt, nd,281638.711355875, -0.13974986973375494, 0.09852939419100988, -0.019969203077078976, 2.0015361309051514, 0.7143690586090088, 0.23781996965408325, -0.1386198252439499, -0.09837005287408829, -0.9854480624198914, -0.03523892164230347, 0.3540462553501129, -0.024103939533233643, 0.048425903483714866, -0.0702203841304755, 0.9962654751413118,-0.01338599077380766,-0.192779541015625,0.0025177001953125,-1.00665283203125
20230215-1541,2023-02-15 15:41:07Z,u02, 73,100,movements,el-ex, lt, nd,281638.721378875, -0.13433246595373335, 0.11986940512618154, -0.014919141005355413, 2.319293737411499, 0.44275355339050293, 0.18875284492969513, -0.1329677850008011, -0.11958254873752594, -0.9838798642158508, 0.049898818135261536, 0.32719355821609497, -0.26137465238571167, 0.05926235073169556, -0.06743917553855137, 0.9958960312201509,-0.011449359727777143,-0.1800079345703125,0.1853179931640625,-0.972198486328125
20230215-1541,2023-02-15 15:41:07Z,u02, 74,100,movements,el-ex, lt, nd,281638.73140187503, -0.1321016998186003, 0.1422645311635749, -0.009294551793228814, 2.171875476837158, 0.1648460477590561, 0.3350253701210022, -0.13038714230060577, -0.141785129904747, -0.9812727570533752, 0.17417974770069122, 0.13307230174541473, -0.29744428396224976, 0.0706105919500341, -0.06616478089713174, 0.9952636101188277,-0.009316320435055665,-0.144622802734375,0.25555419921875,-1.134796142578125
20230215-1541,2023-02-15 15:41:07Z,u02, 75,100,movements,el-ex, lt, nd,281638.74142487504, -0.13214476553576773, 0.16102871567032817, -0.002851574799391903, 1.7182375192642212, 0.05663328617811203, 0.40701478719711304, -0.13005590438842773, -0.16033369302749634, -0.9784572124481201, 0.12178552150726318, -0.11318016052246094, -0.2427341341972351, 0.08015799548733851, -0.06592479019737511, 0.9945769195154904,-0.006728226640329795,-0.0088348388671875,0.122833251953125,-1.2919158935546875
20230215-1541,2023-02-15 15:41:07Z,u02, 76,100,movements,el-ex, lt, nd,281638.751447875, -0.13249116777731842, 0.17523444443359493, 0.002945556079806346, 1.1606799364089966, 0.07823072373867035, 0.3401968777179718, -0.13008080422878265, -0.17433899641036987, -0.9760558009147644, -0.0498204231262207, -0.2573016881942749, -0.1360657811164856, 0.08741025421288307, -0.06581455229104584, 0.99398645084419,-0.004328676087168429,0.0442047119140625,-0.1498260498046875,-1.2544097900390625
20230215-1541,2023-02-15 15:41:07Z,u02, 77,100,movements,el-ex, lt, nd,281638.761470875, -0.1316247351802818, 0.18255870588472717, 0.007732698122284359, 0.5065401196479797, 0.2835143804550171, 0.43018704652786255, -0.12906402349472046, -0.18154634535312653, -0.9748761057853699, -0.12221783399581909, -0.21864597499370575, 0.2610852122306824, 0.09120784746330396, -0.06513893082848932, 0.9936968618308286,-0.0021526886740944333,-0.092529296875,-0.3747711181640625,-1.1920928955078125
20230215-1541,2023-02-15 15:41:07Z,u02, 78,100,movements,el-ex, lt, nd,281638.771494875, -0.12904656810685036, 0.1862233228705834, 0.012722187557957815, 0.3484996557235718, 0.3780752420425415, 0.401530385017395, -0.12646372616291046, -0.18514885008335114, -0.9745392799377441, -0.02139405906200409, -0.24568311870098114, 0.2517762780189514, 0.09319019415426671, -0.06360771389539129, 0.9936144169502933,0.0003254076705410873,-0.2373199462890625,-0.4214324951171875,-0.91387939453125
20230215-1541,2023-02-15 15:41:07Z,u02, 79,100,movements,el-ex, lt, nd,281638.78151787503, -0.1260479868912717, 0.1888895899938876, 0.016553964086819226, 0.3006410300731659, 0.3823815584182739, 0.2831498384475708, -0.12347843497991562, -0.18776835501194, -0.9744209051132202, 0.14209404587745667, -0.015539824962615967, 0.24349445104599, 0.09463297410497457, -0.061920447097458184, 0.9935820330192847,0.0022843356083125576,-0.2157440185546875,-0.429840087890625,-0.656005859375
20230215-1541,2023-02-15 15:41:07Z,u02, 80,100,movements,el-ex, lt, nd,281638.79154087504, -0.12206451808589251, 0.1918534436624333, 0.018972970569952823, 0.33703047037124634, 0.5060062408447266, 0.10062289237976074, -0.11952760070562363, -0.1906786561012268, -0.9743484258651733, 0.17073598504066467, 0.13959217071533203, 0.33399808406829834, 0.09617298868970882, -0.05980431722699618, 0.9935599700794244,0.0035833906176891374,-0.0613555908203125,-0.3345794677734375,-0.7637481689453125
20230215-1541,2023-02-15 15:41:07Z,u02, 81,100,movements,el-ex, lt, nd,281638.801563875, -0.11694975504438043, 0.19545164308887375, 0.01978583016904711, 0.41718369722366333, 0.531082034111023, 0.00361078092828393, -0.11446169763803482, -0.19420960545539856, -0.9742592573165894, 0.07539908587932587, 0.2586474120616913, 0.29635709524154663, 0.09797420717074652, -0.05719627997771067, 0.9935353597829043,0.0041268396919743044,0.059722900390625,-0.110443115234375,-0.6724090576171875
20230215-1541,2023-02-15 15:41:07Z,u02, 82,100,movements,el-ex, lt, nd,281638.811586875, -0.11196449590308803, 0.20009642174956183, 0.02087684810611683, 0.4849560856819153, 0.5102377533912659, 0.11322861909866333, -0.10950139164924622, -0.19876383244991302, -0.9739108681678772, -0.03620489686727524, 0.10879796743392944, 0.3426090478897095, 0.10030061608020584, -0.05462922786960271, 0.9934447383311817,0.0047814055531971884,0.010040283203125,0.013519287109375,-0.654632568359375
20230215-1541,2023-02-15 15:41:07Z,u02, 83,100,movements,el-ex, lt, nd,281638.821609875, -0.10692311853740559, 0.20352136809572163, 0.022797236417114113, 0.20997926592826843, 0.5806357860565186, 0.16297423839569092, -0.1045169085264206, -0.20211926102638245, -0.9737679362297058, -0.15587444603443146, -0.19477716088294983, 0.4159524440765381, 0.10203936054459799, -0.05199996140572319, 0.9934027951490464,0.005895243517949491,-0.089569091796875,0.036224365234375,-0.6678314208984375
20230215-1541,2023-02-15 15:41:07Z,u02, 84,100,movements,el-ex, lt, nd,281638.831632875, -0.1008479190837594, 0.2043353385496464, 0.024175672807146636, 0.01970839500427246, 0.6842604279518127, 0.08762621134519577, -0.09858258813619614, -0.20291636884212494, -0.9742209315299988, -0.21765592694282532, -0.30930596590042114, 0.39821696281433105, 0.10245902504311775, -0.04890486631948033, 0.9935104782118835,0.0068690407793023855,-0.205841064453125,-0.2561187744140625,-0.591461181640625
20230215-1541,2023-02-15 15:41:07Z,u02, 85,100,movements,el-ex, lt, nd,281638.84165587503, -0.09399120286456139, 0.2043939333826153, 0.025135030038374383, 0.00785877462476492, 0.70523601770401, 0.11515547335147858, -0.09189924597740173, -0.20297375321388245, -0.9748621582984924, -0.20294645428657532, -0.17620721459388733, 0.18271738290786743, 0.10248578550908112, -0.04544882407795857, 0.9936658455503026,0.007695502232854733,-0.29833984375,-0.48455810546875,-0.54571533203125
20230215-1541,2023-02-15 15:41:07Z,u02, 86,100,movements,el-ex, lt, nd,281638.851679875, -0.08763678834515708, 0.20411522602666735, 0.026983536153137727, -0.01570221036672592, 0.632237434387207, 0.2543141543865204, -0.08570770174264908, -0.20270083844661713, -0.975482702255249, -0.11026104539632797, 0.05990903079509735, -0.005443751811981201, 0.10236139404219285, -0.04219929250220313, 0.9938114522534254,0.008945868865083704,-0.3152618408203125,-0.4759063720703125,-0.665740966796875
20230215-1541,2023-02-15 15:41:07Z,u02, 87,100,movements,el-ex, lt, nd,281638.861702875, -0.08241250429167031, 0.20416474284939046, 0.030031097971843525, 0.07305212318897247, 0.5464040040969849, 0.3127473294734955, -0.080609530210495, -0.2027493268251419, -0.9759071469306946, -0.005358606576919556, 0.12972068786621094, -0.10052406787872314, 0.10242250966720141, -0.039446715155058855, 0.9939005879975229,0.010726670897789736,-0.2513885498046875,-0.2528228759765625,-0.8998565673828125
20230215-1541,2023-02-15 15:41:07Z,u02, 88,100,movements,el-ex, lt, nd,281638.871725875, -0.07722360180302407, 0.2045237799543939, 0.032951630423945506, 0.02933366782963276, 0.6230114698410034, 0.25085705518722534, -0.07553896307945251, -0.20310088992118835, -0.9762396812438965, 0.06818410754203796, 0.06037011742591858, 0.004422664642333984, 0.1026264778700323, -0.03671474981702971, 0.9939642795980033,0.0124366626413923,-0.138702392578125,-0.080169677734375,-1.0491180419921875
20230215-1541,2023-02-15 15:41:07Z,u02, 89,100,movements,el-ex, lt, nd,281638.881748875, -0.07098928124852763, 0.20419292364036437, 0.03522174458802019, -0.06745051592588425, 0.7003411054611206, 0.18542706966400146, -0.06945610791444778, -0.2027769237756729, -0.976758599281311, 0.10488689690828323, -0.06860068440437317, 0.09798973798751831, 0.10246086682929081, -0.03350325793475724, 0.9940756311690351,0.013890962669988623,-0.03961181640625,-0.09857177734375,-1.04083251953125
20230215-1541,2023-02-15 15:41:07Z,u02, 90,100,movements,el-ex, lt, nd,281638.89177187503, -0.06404805924788995, 0.20283007502778339, 0.03647225409722106, -0.20129379630088806, 0.7366114854812622, 0.08181120455265045, -0.06269221752882004, -0.2014421969652176, -0.9774920344352722, 0.1277403086423874, -0.12393628060817719, 0.177962064743042, 0.10175341670762836, -0.03000354630913342, 0.9942455458963217,0.01489106048301252,0.0125579833984375,-0.20452880859375,-0.9124755859375
20230215-1541,2023-02-15 15:41:07Z,u02, 91,100,movements,el-ex, lt, nd,281638.90179487504, -0.05640818141664104, 0.19987124379717067, 0.03713921433168654, -0.3739646375179291, 0.8184267282485962, 0.10594689846038818, -0.05525590106844902, -0.19854314625263214, -0.9785332679748535, 0.07127750664949417, -0.05974245071411133, 0.2452264428138733, 0.10023352245398628, -0.02620297824428358, 0.9944955345930947,0.015655500853036287,0.05914306640625,-0.318878173828125,-0.8423614501953125
20230215-1541,2023-02-15 15:41:07Z,u02, 92,100,movements,el-ex, lt, nd,281638.911817875, -0.04809373359231574, 0.19520308143997409, 0.038437782930008456, -0.5432708263397217, 0.8853325247764587, 0.18948306143283844, -0.04716216400265694, -0.19396576285362244, -0.9798739552497864, 0.018643364310264587, -0.02745458483695984, 0.26544225215911865, 0.0978603743001541, -0.022053536261417206, 0.9948142816336983,0.016778088830106123,0.0482025146484375,-0.297149658203125,-0.7601470947265625
20230215-1541,2023-02-15 15:41:07Z,u02, 93,100,movements,el-ex, lt, nd,281638.921841875, -0.03941163272272401, 0.189346112363775, 0.04014473963051875, -0.6034422516822815, 0.9066700339317322, 0.18771956861019135, -0.03869722783565521, -0.18821673095226288, -0.9813648462295532, 0.013153892010450363, -0.0369114875793457, 0.2866169810295105, 0.09488802200618461, -0.017715370507413918, 0.9951654367951619,0.018114933398380422,-0.0134429931640625,-0.2338409423828125,-0.71392822265625
20230215-1541,2023-02-15 15:41:07Z,u02, 94,100,movements,el-ex, lt, nd,281638.931864875, -0.030583996499831463, 0.18305697416126152, 0.04178156825296906, -0.6582128405570984, 0.9056756496429443, 0.17030809819698334, -0.030068304389715195, -0.18203631043434143, -0.9828319549560547, 0.011696597561240196, -0.07399095594882965, 0.06077390909194946, 0.09168821208760058, -0.013315002293757037, 0.9955096168506554,0.01940205464618655,-0.0314483642578125,-0.216339111328125,-0.7129058837890625
20230215-1541,2023-02-15 15:41:07Z,u02, 95,100,movements,el-ex, lt, nd,281638.94188787503, -0.022280891734907417, 0.17728326451380833, 0.04365368471270634, -0.37549546360969543, 0.8047029376029968, 0.2587672472000122, -0.02192985638976097, -0.17635607719421387, -0.9840821027755737, -0.03454304486513138, -0.17464189231395721, -0.166323721408844, 0.08874120511444894, -0.009161874094627164, 0.9957963116291715,0.020752114549613513,-0.01873779296875,-0.241668701171875,-0.7635955810546875
20230215-1541,2023-02-15 15:41:07Z,u02, 96,100,movements,el-ex, lt, nd,281638.95191087504, -0.015375845529755145, 0.177138193108408, 0.047292464136004145, 0.3044726848602295, 0.7085739970207214, 0.4451642632484436, -0.01513464841991663, -0.17621327936649323, -0.9842356443405151, -0.08062963932752609, -0.47255995869636536, -0.3320484757423401, 0.08860706287408684, -0.005564240728948625, 0.995788514870503,0.022870829694790533,-0.0310821533203125,-0.2812042236328125,-1.0716094970703125
20230215-1541,2023-02-15 15:41:07Z,u02, 97,100,movements,el-ex, lt, nd,281638.961933875, -0.010087022557506006, 0.18086383556705782, 0.05208612107187492, 0.43594038486480713, 0.49033305048942566, 0.45552748441696167, -0.009922321885824203, -0.17987938225269318, -0.9836386442184448, -0.11281950771808624, -0.5629032850265503, -0.6281319856643677, 0.09040773944704861, -0.00266955846809833, 0.9955752526102709,0.02547806689299342,-0.0786590576171875,-0.49285888671875,-1.1998443603515625
20230215-1541,2023-02-15 15:41:07Z,u02, 98,100,movements,el-ex, lt, nd,281638.971956875, -0.007248105532439155, 0.1865763672241986, 0.05616073702712893, 0.7417301535606384, 0.21269719302654266, 0.349398672580719, -0.007122252602130175, -0.1854957789182663, -0.9826192259788513, -0.16914740204811096, -0.4387718439102173, -0.8864297866821289, 0.09321691526665679, -0.000991456163887124, 0.9952621490543074,0.02761695732619809,-0.109832763671875,-0.7350921630859375,-1.4883270263671875
20230215-1541,2023-02-15 15:41:07Z,u02, 99,100,movements,el-ex, lt, nd,281638.981979875, -0.008644167073363924, 0.19461754118025826, 0.059294834667496736, 0.7945238947868347, -0.38912156224250793, 0.2648024559020996, -0.008480873890221119, -0.19339130818843842, -0.9810850620269775, -0.3055603802204132, -0.11909349262714386, -0.79544997215271, 0.09723918694941289, -0.001419778838441771, 0.9948349987825719,0.02908283756999768,-0.1363067626953125,-0.7053680419921875,-1.7027130126953125
20230215-1541,2023-02-15 15:41:07Z,u02, 100,100,movements,el-ex, lt, nd,281638.992003875, -0.013932645145272196, 0.200705626843755, 0.06221868409925217, 0.390654981136322, -0.41887733340263367, 0.2923603057861328, -0.013652521185576916, -0.19936084747314453, -0.9798310399055481, -0.46883052587509155, 0.25150007009506226, -0.0751311182975769, 0.1003491543749588, -0.0038117698585577254, 0.9944849668288125,0.030249511945854055,-0.242706298828125,-0.4879302978515625,-1.943695068359375
20230215-1541,2023-02-15 15:41:07Z,u02, 101,100,movements,el-ex, lt, nd,281639.00202687504, -0.014920280373836201, 0.20234334281365848, 0.06454597722314982, 0.0027376492507755756, 0.3853485882282257, 0.132933109998703, -0.01461533922702074, -0.20096541941165924, -0.9794893264770508, -0.6170986294746399, 0.44161170721054077, 0.5205812454223633, 0.101183256254876, -0.004159170599649422, 0.9943650242083458,0.031348427649040986,-0.39117431640625,-0.1206207275390625,-1.4374237060546875
20230215-1541,2023-02-15 15:41:07Z,u02, 102,100,movements,el-ex, lt, nd,281639.012049875, -0.00827710731060603, 0.20329166171418706, 0.06502691216116661, 0.23663030564785004, 0.9464384913444519, -0.04411996528506279, -0.008106566965579987, -0.20189429819583893, -0.9793737530708313, -0.5662649273872375, 0.40791842341423035, 0.5733374357223511, 0.10155023449607375, -0.0008164448431052897, 0.9943178322352237,0.03191994381636556,-0.572265625,0.177398681640625,-0.710968017578125
20230215-1541,2023-02-15 15:41:07Z,u02, 103,100,movements,el-ex, lt, nd,281639.022072875, 0.00045471305405100416, 0.20664914611568036, 0.0643311609520144, 0.3831597864627838, 0.754253625869751, -0.08107438683509827, 0.0004450385458767414, -0.20518149435520172, -0.9787238240242004, -0.2866237461566925, 0.31123000383377075, 0.2535804510116577, 0.10308019136563405, 0.0035430388506307673, 0.9941515196835129,0.03201195249013806,-0.636383056640625,0.245025634765625,-0.3496551513671875
20230215-1541,2023-02-15 15:41:07Z,u02, 104,100,movements,el-ex, lt, nd,281639.032095875, 0.006789957404773592, 0.21059300498987826, 0.06392940044285488, 0.4347665309906006, 0.5396001935005188, 0.0025459423195570707, 0.006639896892011166, -0.2090398371219635, -0.9778845906257629, 0.005307603627443314, 0.23055467009544373, 0.16417914628982544, 0.10493984130748127, 0.006733408101695376, 0.9939362961228415,0.032138702684486306,-0.4498291015625,0.150115966796875,-0.5703125
20230215-1541,2023-02-15 15:41:07Z,u02, 105,100,movements,el-ex, lt, nd,281639.042118875, 0.011602632606578166, 0.21598244282923962, 0.06403121453963893, 0.6312254667282104, 0.45362165570259094, 0.00730703491717577, 0.011332806199789047, -0.21430714428424835, -0.9767005443572998, 0.1906781792640686, 0.13200119137763977, 0.12561112642288208, 0.10753978456425871, 0.009214575144979162, 0.9936283529831371,0.03244808336212879,-0.1217193603515625,0.0699310302734375,-0.7931060791015625
20230215-1541,2023-02-15 15:41:07Z,u02, 106,100,movements,el-ex, lt, nd,281639.052141875, 0.01592462612288292, 0.22182305784200543, 0.06356481457823268, 0.49231019616127014, 0.39439108967781067, -0.08979421854019165, 0.01553378440439701, -0.22000837326049805, -0.9753742814064026, 0.3784174919128418, 0.15198464691638947, 0.11673176288604736, 0.11037341860739852, 0.011426420237663548, 0.9932941221061217,0.032461656916011904,0.114105224609375,-0.036651611328125,-0.8323974609375
20230215-1541,2023-02-15 15:41:07Z,u02, 107,100,movements,el-ex, lt, nd,281639.06216487504, 0.01914076156713866, 0.22495673625254073, 0.062199235986935615, 0.14197735488414764, 0.17802096903324127, -0.1594357043504715, 0.018657347187399864, -0.22306418418884277, -0.9746251702308655, 0.5551797747612, 0.2377888709306717, -0.019942641258239746, 0.1118862448642898, 0.01299510394092, 0.9931215074458668,0.03197036193406329,0.2946624755859375,-0.0941162109375,-0.853668212890625
20230215-1541,2023-02-15 15:41:07Z,u02, 108,100,movements,el-ex, lt, nd,281639.072188875, 0.01927744841907539, 0.22602743607824197, 0.06065563199895883, 0.11089427024126053, -0.23978586494922638, -0.12238714843988419, 0.018785949796438217, -0.2241077870130539, -0.9743832945823669, 0.6438573598861694, 0.1913776397705078, -0.15343952178955078, 0.11242580296437035, 0.012992169609405815, 0.9930846873926413,0.03121480370872244,0.4913787841796875,-0.0198211669921875,-0.9079742431640625
20230215-1541,2023-02-15 15:41:07Z,u02, 109,100,movements,el-ex, lt, nd,281639.082211875, 0.014884698580595948, 0.22697283354753423, 0.05992913442693205, 0.07250761985778809, -0.6203026175498962, -0.02423427253961563, 0.01450240146368742, -0.22502903640270233, -0.9742441177368164, 0.5687952041625977, 0.06676483154296875, -0.13908284902572632, 0.11296747149419369, 0.010783763394004438, 0.9930684958155978,0.030608945038768806,0.634002685546875,0.0134429931640625,-1.074188232421875
20230215-1541,2023-02-15 15:41:07Z,u02, 110,100,movements,el-ex, lt, nd,281639.092234875, 0.008194583160012614, 0.22793206712537278, 0.05947764588825449, 0.1557638943195343, -0.7160802483558655, -0.07832866162061691, 0.007982547394931316, -0.2259635627269745, -0.9741030335426331, 0.34934765100479126, 0.037319108843803406, -0.12529265880584717, 0.11354721894199332, 0.007450258358593893, 0.993051360069291,0.03000703743760444,0.6439056396484375,-0.097015380859375,-1.1394805908203125
20230215-1541,2023-02-15 15:41:07Z,u02, 111,100,movements,el-ex, lt, nd,281639.102257875, 0.0012867074717826765, 0.230111795290468, 0.058314330261279655, 0.2720250189304352, -0.6993668079376221, -0.13337425887584686, 0.001252790680155158, -0.22808636724948883, -0.9736400842666626, 0.1264936625957489, 0.07699379324913025, -0.0734790563583374, 0.11473477416287195, 0.003985661459746616, 0.9929637062464557,0.02903410812282227,0.4848785400390625,-0.192779541015625,-1.09246826171875
20230215-1541,2023-02-15 15:41:07Z,u02, 112,100,movements,el-ex, lt, nd,281639.11228087504, -0.005313099970707647, 0.23325933932887916, 0.057022121157823055, 0.3763277232646942, -0.6769821047782898, -0.12035699933767319, -0.00516918720677495, -0.231149822473526, -0.9729044437408447, 0.05691161006689072, 0.07074937224388123, 0.05907082557678223, 0.11639295161830998, 0.0006798136065308939, 0.9928081441343605,0.028004428350039776,0.2259368896484375,-0.167633056640625,-1.09326171875
20230215-1541,2023-02-15 15:41:07Z,u02, 113,100,movements,el-ex, lt, nd,281639.122303875, -0.011888454853210618, 0.23803254940965643, 0.05562513046550968, 0.5851849913597107, -0.7015228867530823, -0.16975796222686768, -0.011552972719073296, -0.23579110205173492, -0.9717351198196411, 0.0686512291431427, -0.009570270776748657, 0.1699773073196411, 0.11885160779081147, -0.002598005578371335, 0.9925440543547545,0.02690625389270679,0.071380615234375,-0.1476898193359375,-0.979888916015625
20230215-1541,2023-02-15 15:41:07Z,u02, 114,100,movements,el-ex, lt, nd,281639.132326875, -0.018379424572157917, 0.2444588463377455, 0.05363778890398784, 0.6597647070884705, -0.6832373738288879, -0.22964073717594147, -0.017831971868872643, -0.2420312911272049, -0.9701045751571655, 0.07853130996227264, -0.08256895840167999, 0.2062191367149353, 0.12212088902361448, -0.005848370402338541, 0.9921705445063778,0.025494450923330355,0.0525665283203125,-0.1951751708984375,-0.85784912109375
20230215-1541,2023-02-15 15:41:07Z,u02, 115,100,movements,el-ex, lt, nd,281639.142349875, -0.024902696567884124, 0.25052262887560506, 0.051208594787578623, 0.55902099609375, -0.7541024684906006, -0.2683570981025696, -0.02412281557917595, -0.2479103058576584, -0.9684826135635376, 0.070799320936203, -0.040206193923950195, 0.0021282434463500977, 0.12519964298024505, -0.00915117438469828, 0.9918027738750844,0.023843898099549,0.0590667724609375,-0.2947998046875,-0.7595062255859375
20230215-1541,2023-02-15 15:41:07Z,u02, 116,100,movements,el-ex, lt, nd,281639.15237475, -0.03283739685434847, 0.25670456698927013, 0.04876414401620236, 0.6851970553398132, -0.958558976650238, -0.2263060361146927, -0.03175567090511322, -0.25389447808265686, -0.9667105078697205, 0.08850298076868057, -0.00025597214698791504, -0.17093902826309204, 0.12834183078222985, -0.013157889985609232, 0.9913969863380103,0.022074976581658405,0.05535888671875,-0.31927490234375,-0.841552734375
20230215-1541,2023-02-15 15:41:07Z,u02, 117,100,movements,el-ex, lt, nd,281639.16239775, -0.04277090125566157, 0.26400289366267715, 0.046983794918046426, 0.7068787217140198, -1.0999016761779785, -0.18280181288719177, -0.04127643629908562, -0.2609468400478363, -0.9644703269004822, 0.12750372290611267, -0.04158923029899597, -0.07823902368545532, 0.13204996090800872, -0.018100966017945624, 0.9908664768333305,0.02046633308559534,0.0428009033203125,-0.2580718994140625,-1.0874481201171875
20230215-1541,2023-02-15 15:41:07Z,u02, 118,100,movements,el-ex, lt, nd,281639.17242075, -0.05345298920125011, 0.26987893287866166, 0.044987442816819295, 0.44839733839035034, -1.1237982511520386, -0.2686557173728943, -0.051493629813194275, -0.26661476492881775, -0.9624266028404236, 0.06954465061426163, 0.017682820558547974, -0.01242685317993164, 0.1350438482471843, -0.023448932429316515, 0.99038591520306,0.018685215499979136,0.079345703125,-0.2808074951171875,-1.1027679443359375
20230215-1541,2023-02-15 15:41:07Z,u02, 119,100,movements,el-ex, lt, nd,281639.18244375003, -0.06411092929631877, 0.27361798472354115, 0.042018187442838764, 0.3147970736026764, -1.1733356714248657, -0.3359915316104889, -0.06168369948863983, -0.27021658420562744, -0.9608215689659119, -0.039070211350917816, 0.013624757528305054, 0.02622079849243164, 0.1369494781876672, -0.02887990852797643, 0.9900206134173323,0.01643047229372361,0.0630340576171875,-0.286834716796875,-1.0088958740234375
20230215-1541,2023-02-15 15:41:07Z,u02, 120,100,movements,el-ex, lt, nd,281639.19246675004, -0.07567563220127584, 0.2775129882341086, 0.03897226494753938, 0.4327756464481354, -1.2980512380599976, -0.2884804606437683, -0.07271081954240799, -0.27396464347839355, -0.9589872360229492, -0.09968309849500656, -0.10715416073799133, -0.026425302028656006, 0.138916428107157, -0.03476503202739027, 0.9895939778192558,0.014052642965731166,-0.038848876953125,-0.23345947265625,-0.9358367919921875
20230215-1541,2023-02-15 15:41:07Z,u02, 121,100,movements,el-ex, lt, nd,281639.20248975, -0.0880558908820657, 0.2818520553967217, 0.036671056619917125, 0.3648301064968109, -1.2692878246307373, -0.23177768290042877, -0.08447211235761642, -0.2781350910663605, -0.9568204283714294, -0.11918706446886063, -0.12332367897033691, 0.023226678371429443, 0.141099289224486, -0.0409972922473209, 0.9890739627766476,0.011954018546029115,-0.14892578125,-0.3139495849609375,-0.9642791748046875
20230215-1541,2023-02-15 15:41:07Z,u02, 122,100,movements,el-ex, lt, nd,281639.21251275, -0.0994007402108828, 0.2853606705643792, 0.03481887261771352, 0.3395013213157654, -1.092832326889038, -0.1985938996076584, -0.09522400051355362, -0.2815035581588745, -0.9548236131668091, -0.14777234196662903, -0.024023234844207764, 0.04683417081832886, 0.14285567697097346, -0.04669524899934064, 0.9885893451626004,0.010147130688540009,-0.185577392578125,-0.415679931640625,-0.9742889404296875
20230215-1541,2023-02-15 15:41:07Z,u02, 123,100,movements,el-ex, lt, nd,281639.22253675, -0.10952228715716475, 0.2894380637406243, 0.03308070432981901, 0.4334929585456848, -1.0507160425186157, -0.21669089794158936, -0.1047569215297699, -0.2854137122631073, -0.9526620507240295, -0.07557157427072525, 0.038129717111587524, -0.056279540061950684, 0.14487434072963615, -0.05177253596734095, 0.9880585015773411,0.008449847144001791,-0.228240966796875,-0.3530120849609375,-0.9011993408203125
20230215-1541,2023-02-15 15:41:07Z,u02, 124,100,movements,el-ex, lt, nd,281639.23255975003, -0.12012477150928559, 0.29415125103025264, 0.031310093773712806, 0.4565836191177368, -1.1694575548171997, -0.22768230736255646, -0.1146889477968216, -0.2899276614189148, -0.950151801109314, 0.06123729050159454, 0.02691185474395752, -0.13242876529693604, 0.14719331418168627, -0.05708099821752895, 0.9874368389215709,0.006661946075638692,-0.2279052734375,-0.271331787109375,-0.9516143798828125
20230215-1541,2023-02-15 15:41:07Z,u02, 125,100,movements,el-ex, lt, nd,281639.24258275004, -0.13166107926952283, 0.298243175355861, 0.029338902553583093, 0.2852199375629425, -1.2304258346557617, -0.2542382478713989, -0.12548552453517914, -0.2938413918018341, -0.9475814700126648, 0.11250017583370209, -0.06385517120361328, -0.0709121823310852, 0.14918601973400847, -0.06287130447383285, 0.9867971766633328,0.004702410436919882,-0.115631103515625,-0.24139404296875,-1.0567779541015625
20230215-1541,2023-02-15 15:41:07Z,u02, 126,100,movements,el-ex, lt, nd,281639.25260575, -0.14269425372074165, 0.2999797143556442, 0.02685431722533065, 0.039066098630428314, -1.0816848278045654, -0.24330438673496246, -0.13585972785949707, -0.29550081491470337, -0.945632815361023, 0.03649437427520752, -0.11793610453605652, 0.06590259075164795, 0.1499809034282473, -0.06847866256692468, 0.9863111649860888,0.002590969028758451,-0.01690673828125,-0.3092041015625,-1.065582275390625
20230215-1541,2023-02-15 15:41:07Z,u02, 127,100,movements,el-ex, lt, nd,281639.26262875, -0.1516176614130419, 0.3036194381157958, 0.025459957085938692, 0.7075905203819275, -0.7550913095474243, -0.147563174366951, -0.14412906765937805, -0.29897603392601013, -0.9433133602142334, -0.047277286648750305, -0.30862897634506226, 0.22875958681106567, 0.15173373403890617, -0.072939594648228, 0.9857258530443633,0.001094632712907637,-0.04693603515625,-0.3869171142578125,-0.960784912109375
20230215-1541,2023-02-15 15:41:07Z,u02, 128,100,movements,el-ex, lt, nd,281639.27265175, -0.1576003379984286, 0.3097892896218153, 0.024478954470470115, 0.3328036367893219, -0.5444831848144531, -0.23615403473377228, -0.14947763085365295, -0.3048579692840576, -0.940594494342804, -0.0961584597826004, -0.26435595750808716, 0.02943122386932373, 0.1547376714171153, -0.07588803328120061, 0.9850366348245674,-8.837255982068436e-05,-0.1537628173828125,-0.4828643798828125,-0.7760162353515625
20230215-1541,2023-02-15 15:41:07Z,u02, 129,100,movements,el-ex, lt, nd,281639.28267475, -0.1614273993907715, 0.31134119332929694, 0.02191016285014433, -0.026979593560099602, -0.32926541566848755, -0.2706679105758667, -0.15300002694129944, -0.3063356280326843, -0.9395474791526794, -0.09376522898674011, 0.02583324909210205, 0.21284770965576172, 0.15540116139782395, -0.07795342155669864, 0.984769421990235,-0.001712569788884634,-0.21868896484375,-0.67303466796875,-0.7949676513671875
20230215-1541,2023-02-15 15:41:07Z,u02, 130,100,movements,el-ex, lt, nd,281639.29269775003, -0.1624320954742466, 0.31136727086100124, 0.019349441619977703, -0.042468540370464325, -0.08048355579376221, -0.2187887281179428, -0.15394261479377747, -0.3063604533672333, -0.9393854141235352, -0.09709510207176208, 0.018777996301651, 0.19359689950942993, 0.15531254680122986, -0.07864672360386436, 0.9847250456751878,-0.0030525070052667305,-0.2544403076171875,-0.3844146728515625,-0.87554931640625
20230215-1541,2023-02-15 15:41:07Z,u02, 131,100,movements,el-ex, lt, nd,281639.30272175, -0.1625761671277248, 0.3106201160406888, 0.016655810242987425, -0.2181425839662552, -0.12240464240312576, -0.2708568871021271, -0.1541149616241455, -0.30564913153648376, -0.9395888447761536, -0.11497391760349274, 0.007553398609161377, 0.06756430864334106, 0.154838378163331, -0.07893453054906678, 0.9847717062764161,-0.0043594821392431635,-0.2432098388671875,-0.273223876953125,-0.6684417724609375
20230215-1541,2023-02-15 15:41:07Z,u02, 132,100,movements,el-ex, lt, nd,281639.31274475, -0.16289347964723971, 0.3078216319182234, 0.012825176962713722, -0.44135090708732605, -0.1577059030532837, -0.36537647247314453, -0.1545512080192566, -0.3029833734035492, -0.9403802156448364, -0.21361297369003296, -0.03615853190422058, 0.0750696063041687, 0.1533080849832451, -0.07941355196147125, 0.984963032150528,-0.006156309196613198,-0.257965087890625,-0.2933197021484375,-0.841522216796875
20230215-1541,2023-02-15 15:41:07Z,u02, 133,100,movements,el-ex, lt, nd,281639.32276775, -0.16211961192878555, 0.30331978803793513, 0.0076892363904972295, -0.5882713198661804, 0.026560071855783463, -0.4502708315849304, -0.15404202044010162, -0.2986900806427002, -0.9418361186981201, -0.3379167318344116, -0.09944227337837219, 0.11586266756057739, 0.15088972536231737, -0.07946212964493482, 0.9853155291016227,-0.00844495274887078,-0.306793212890625,-0.3115997314453125,-0.8719940185546875
20230215-1541,2023-02-15 15:41:07Z,u02, 134,100,movements,el-ex, lt, nd,281639.33279075, -0.15887635723346366, 0.29840393621430833, 0.002095863350581258, -0.5115451216697693, 0.3021724820137024, -0.42737138271331787, -0.15121708810329437, -0.29399505257606506, -0.9437692165374756, -0.3904242515563965, -0.07212436199188232, 0.08796483278274536, 0.14826240798717935, -0.07831770942244161, 0.9857832306390196,-0.010762967181720455,-0.434295654296875,-0.37469482421875,-0.845184326171875
20230215-1541,2023-02-15 15:41:07Z,u02, 135,100,movements,el-ex, lt, nd,281639.34281375003, -0.15342944627153424, 0.29521081480958505, -0.002642039059016904, -0.2547595798969269, 0.4864664077758789, -0.38107872009277344, -0.1462169587612152, -0.2909415662288666, -0.9455018043518066, -0.31285905838012695, -0.004148215055465698, -0.003320157527923584, 0.14653717900558008, -0.07599977146773237, 0.9862011989584667,-0.01257417247074476,-0.53240966796875,-0.39080810546875,-0.833770751953125
20230215-1541,2023-02-15 15:41:07Z,u02, 136,100,movements,el-ex, lt, nd,281639.35283675004, -0.14766057402574476, 0.29476502522311165, -0.006920255595797372, 0.047129690647125244, 0.39675918221473694, -0.4248086214065552, -0.14077915251255035, -0.2905150055885315, -0.9464577436447144, -0.198606938123703, 0.1564817726612091, -0.20185762643814087, 0.1461961451563251, -0.07346985246001221, 0.9864207247734559,-0.01424531784807118,-0.511993408203125,-0.3406982421875,-0.883880615234375
20230215-1541,2023-02-15 15:41:07Z,u02, 137,100,movements,el-ex, lt, nd,281639.36285975, -0.1431778509328905, 0.29730052514562544, -0.01104156556896606, 0.34530723094940186, 0.2939379811286926, -0.41690048575401306, -0.13642950356006622, -0.292940229177475, -0.946347177028656, -0.09350530803203583, 0.2485828697681427, -0.18074321746826172, 0.1473312867669114, -0.07155344882511122, 0.986365174591716,-0.016039236825488527,-0.3984375,-0.21917724609375,-1.0533447265625
20230215-1541,2023-02-15 15:41:07Z,u02, 138,100,movements,el-ex, lt, nd,281639.37288375, -0.13861185043448604, 0.30284616638228784, -0.013919520873782657, 0.6690402626991272, 0.47680580615997314, -0.27760839462280273, -0.13188058137893677, -0.29823803901672363, -0.9453367590904236, -0.011185944080352783, 0.21953317523002625, -0.07860422134399414, 0.15000285721567524, -0.06950370929950642, 0.9860876146929713,-0.01730938767026877,-0.2836456298828125,-0.070220947265625,-1.1758880615234375
20230215-1541,2023-02-15 15:41:07Z,u02, 139,100,movements,el-ex, lt, nd,281639.38290675, -0.1328079317775653, 0.3115621446884503, -0.015249249420436676, 1.0279450416564941, 0.6057326197624207, -0.23250719904899597, -0.12604272365570068, -0.3065459430217743, -0.9434738159179688, 0.04832959175109863, 0.20217576622962952, -0.12514495849609375, 0.15430551028081152, -0.06673010514365078, 0.9856062829810698,-0.017810443889925285,-0.1825103759765625,-0.052154541015625,-1.055694580078125
20230215-1541,2023-02-15 15:41:07Z,u02, 140,100,movements,el-ex, lt, nd,281639.39292975, -0.12647422708250664, 0.3228074413362263, -0.016458673696810627, 1.1150099039077759, 0.5706180334091187, -0.2827802300453186, -0.11962214857339859, -0.3172302544116974, -0.9407739043235779, 0.13996198773384094, 0.2322387397289276, -0.13773250579833984, 0.15986390497289793, -0.06369132409374588, 0.9849129392120818,-0.018261381706676676,-0.1118621826171875,-0.0985260009765625,-1.044342041015625
20230215-1541,2023-02-15 15:41:07Z,u02, 141,100,movements,el-ex, lt, nd,281639.40295275004, -0.12109710192127637, 0.33285279937009915, -0.01778939891218047, 0.8063802123069763, 0.42607763409614563, -0.19633956253528595, -0.11417105048894882, -0.326740562915802, -0.9381927251815796, 0.22778788208961487, 0.2906382381916046, -0.07669979333877563, 0.16481829497429312, -0.061143887424977186, 0.9842477447990602,-0.018779513103931226,-0.0315704345703125,-0.101898193359375,-1.07708740234375
20230215-1541,2023-02-15 15:41:07Z,u02, 142,100,movements,el-ex, lt, nd,281639.41297575, -0.11737786511971542, 0.33870017560620974, -0.018140242823565352, 0.39400678873062134, 0.2829678952693939, -0.01405125018209219, -0.11045527458190918, -0.3322613835334778, -0.9366973638534546, 0.27949202060699463, 0.261704683303833, 0.057608067989349365, 0.16772028303376232, -0.05933982027374019, 0.9838672721850874,-0.01881030753433328,0.06781005859375,-0.054534912109375,-1.0650787353515625
20230215-1541,2023-02-15 15:41:07Z,u02, 143,100,movements,el-ex, lt, nd,281639.42299875, -0.11557941798946499, 0.34181925779095323, -0.01730887176047538, 0.2539964020252228, 0.17338253557682037, 0.0867101177573204, -0.10865045338869095, -0.3352016508579254, -0.9358605146408081, 0.2196732759475708, 0.16230425238609314, 0.17714780569076538, 0.16929594577628848, -0.05838337736478612, 0.9836635581319835,-0.018336968428053584,0.15240478515625,-0.044647216796875,-0.9409027099609375
20230215-1541,2023-02-15 15:41:07Z,u02, 144,100,movements,el-ex, lt, nd,281639.43302175, -0.11402346230255146, 0.3436491902121285, -0.01590662435460671, 0.16696695983409882, 0.23940709233283997, 0.13083389401435852, -0.1071241945028305, -0.3369251489639282, -0.9354174733161926, 0.07871221005916595, 0.024623483419418335, 0.2698291540145874, 0.17025065288835942, -0.0574976363528808, 0.9835650537861355,-0.0175656787650108,0.1526336669921875,-0.1091156005859375,-0.83477783203125
20230215-1541,2023-02-15 15:41:07Z,u02, 145,100,movements,el-ex, lt, nd,281639.44304475, -0.11190541367420932, 0.34521319511356735, -0.013689743215064902, 0.19021794199943542, 0.36044085025787354, 0.27122923731803894, -0.10508371889591217, -0.3383972942829132, -0.9351174831390381, -0.06532654911279678, -0.05189207196235657, 0.18877959251403809, 0.1711008943077631, -0.05626498788885585, 0.9835099773454006,-0.016337236961652044,0.049713134765625,-0.251190185546875,-0.6793670654296875
20230215-1541,2023-02-15 15:41:07Z,u02, 146,100,movements,el-ex, lt, nd,281639.45306875004, -0.10908499830893306, 0.3467772578791841, -0.009610406943098376, 0.21490678191184998, 0.43078452348709106, 0.4357635974884033, -0.10238814353942871, -0.3398686647415161, -0.9348828792572021, -0.08865200728178024, -0.06708326935768127, 0.11061841249465942, 0.17200457918088036, -0.05452518733893465, 0.9834845110606016,-0.014131057335127227,-0.111053466796875,-0.3502655029296875,-0.717620849609375
20230215-1541,2023-02-15 15:41:07Z,u02, 147,100,movements,el-ex, lt, nd,281639.46309175, -0.10672149074208755, 0.3490606426554406, -0.0040625415127148404, 0.3617226481437683, 0.4606401324272156, 0.5502127408981323, -0.10009532421827316, -0.34201523661613464, -0.9343481659889221, -0.07750183343887329, 0.06796735525131226, 0.1055670976638794, 0.173291419387405, -0.052877280250869324, 0.9833855572168115,-0.011259009606424335,-0.19281005859375,-0.425689697265625,-0.7671051025390625
20230215-1541,2023-02-15 15:41:07Z,u02, 148,100,movements,el-ex, lt, nd,281639.47311475, -0.10399566189822201, 0.3524127831366846, 0.002516529917084373, 0.4302268624305725, 0.5418207049369812, 0.5827757120132446, -0.09742852300405502, -0.3451633155345917, -0.9334719777107239, -0.11430255323648453, 0.1498354971408844, 0.21881139278411865, 0.17512329453948242, -0.050949307826774426, 0.9831958178219942,-0.007873789156271476,-0.18231201171875,-0.339263916015625,-0.86798095703125
20230215-1541,2023-02-15 15:41:07Z,u02, 149,100,movements,el-ex, lt, nd,281639.48313775, -0.10033368242740708, 0.3561498021620185, 0.008802425146972121, 0.44813448190689087, 0.5821532607078552, 0.4993634819984436, -0.09387966245412827, -0.34866824746131897, -0.9325326085090637, -0.1657945215702057, 0.13530457019805908, 0.116355299949646, 0.17712790200597509, -0.04857371970359747, 0.9829778402213044,-0.004556353542927376,-0.1891326904296875,-0.2205810546875,-0.7550048828125
20230215-1541,2023-02-15 15:41:08Z,u02, 150,100,movements,el-ex, lt, nd,281639.49316075, -0.09695075716564804, 0.3596283481455961, 0.014415302153123772, 0.27915850281715393, 0.5279579162597656, 0.49981728196144104, -0.09060649573802948, -0.35192638635635376, -0.9316320419311523, -0.20274384319782257, 0.16203069686889648, 0.14502626657485962, 0.17897563517050988, -0.04638635201539772, 0.9827581342617844,-0.001582993280707009,-0.234527587890625,-0.207061767578125,-0.7524566650390625
20230215-1541,2023-02-15 15:41:08Z,u02, 151,100,movements,el-ex, lt, nd,281639.50318375, -0.09461872506404509, 0.3604859350789647, 0.01977186291448414, 0.06557054072618484, 0.28799405694007874, 0.4831571877002716, -0.08840510994195938, -0.3527289628982544, -0.9315400123596191, -0.18448320031166077, 0.1739417016506195, 0.10782486200332642, 0.1795192273644706, -0.044753101154925166, 0.9827351701494486,0.0012372342144160568,-0.286041259765625,-0.197021484375,-0.8462066650390625
20230215-1541,2023-02-15 15:41:08Z,u02, 152,100,movements,el-ex, lt, nd,281639.51320675004, -0.09486195631775003, 0.3607258358232731, 0.02535555822396887, 0.06296676397323608, 0.061478905379772186, 0.566699743270874, -0.08862366527318954, -0.3529534339904785, -0.9314342141151428, -0.1439509093761444, 0.08102652430534363, 0.026298165321350098, 0.17976181199102967, -0.04436873918067785, 0.9827010453821807,0.003953157920884183,-0.280120849609375,-0.1903839111328125,-0.737579345703125
20230215-1541,2023-02-15 15:41:08Z,u02, 153,100,movements,el-ex, lt, nd,281639.52323075, -0.09698060258988542, 0.3596172699763876, 0.032060752825442546, -0.1982513815164566, 0.04210920259356499, 0.6891326904296875, -0.09063467383384705, -0.35191601514816284, -0.9316332340240479, -0.09601094573736191, 0.010225921869277954, -0.019218146800994873, 0.17937258518004298, -0.044820315322618966, 0.9827341504146634,0.007085163671494466,-0.262542724609375,-0.198638916015625,-0.9097747802734375
20230215-1541,2023-02-15 15:41:08Z,u02, 154,100,movements,el-ex, lt, nd,281639.53325375, -0.09841587768532715, 0.3552608164761599, 0.039311054320177105, -0.5073397755622864, 0.19569610059261322, 0.7371889352798462, -0.09212149679660797, -0.34783491492271423, -0.9330190420150757, -0.07711384445428848, 0.012568771839141846, -0.06305938959121704, 0.1774013218864618, -0.04493610139411643, 0.983054721746496,0.010631843393365759,-0.2019805908203125,-0.3311614990234375,-0.9127349853515625
20230215-1541,2023-02-15 15:41:08Z,u02, 155,100,movements,el-ex, lt, nd,281639.54327675, -0.09845866477448177, 0.34872280198665273, 0.046657080985120974, -0.640742301940918, 0.2724215090274811, 0.7612310647964478, -0.0923829972743988, -0.3416977524757385, -0.9352582693099976, -0.016839534044265747, -0.08789822459220886, -0.12942373752593994, 0.17435242895516015, -0.044408381194871636, 0.98357576997752,0.014410410084639063,-0.17779541015625,-0.3288116455078125,-0.978057861328125
20230215-1541,2023-02-15 15:41:08Z,u02, 156,100,movements,el-ex, lt, nd,281639.55329975, -0.09892370257319412, 0.34183804778032006, 0.05462999534319041, -0.5309920907020569, 0.16943147778511047, 0.8728904724121094, -0.09304805099964142, -0.3352193534374237, -0.9375340342521667, 0.10401900112628937, -0.12335306406021118, -0.25721389055252075, 0.1711473306361459, -0.04406339570695214, 0.9840861854074742,0.018474422076566223,-0.146270751953125,-0.3770294189453125,-1.0216217041015625
20230215-1541,2023-02-15 15:41:08Z,u02, 157,100,movements,el-ex, lt, nd,281639.56332275004, -0.10069458654135452, 0.33656976571575825, 0.06407855749648593, -0.3472801148891449, 0.12079895287752151, 0.9805786609649658, -0.09488438814878464, -0.3302512764930725, -0.9391118288040161, 0.23430383205413818, -0.11089563369750977, -0.2107904553413391, 0.16878298187751, -0.04423103484670373, 0.984388908435393,0.023116387313502955,-0.0583343505859375,-0.456268310546875,-1.13116455078125
20230215-1541,2023-02-15 15:41:08Z,u02, 158,100,movements,el-ex, lt, nd,281639.57334575, -0.10238354792112463, 0.3320383639437131, 0.07406264978643251, -0.3779493570327759, 0.22290268540382385, 0.9639730453491211, -0.09662233293056488, -0.32597073912620544, -0.9404292702674866, 0.19607900083065033, -0.04797646403312683, -0.07144200801849365, 0.1667963286325762, -0.04432096730868942, 0.9845962915481937,0.028015642566409957,0.08709716796875,-0.4534149169921875,-1.2045440673828125
20230215-1541,2023-02-15 15:41:08Z,u02, 159,100,movements,el-ex, lt, nd,281639.58336875, -0.10226543950149763, 0.3265467894058857, 0.08351429464504459, -0.5412716865539551, 0.4188860356807709, 0.9287944436073303, -0.09669254720211029, -0.32077422738075256, -0.9422072172164917, 0.06945548951625824, -0.002147585153579712, -0.004325926303863525, 0.16430020800076162, -0.04360999877114354, 0.9848986705883258,0.03283528503798677,0.1427459716796875,-0.4137725830078125,-1.072235107421875
20230215-1541,2023-02-15 15:41:08Z,u02, 160,100,movements,el-ex, lt, nd,281639.59339175, -0.10020740120362304, 0.31894405377479773, 0.09257636058423165, -0.7918208241462708, 0.5578274130821228, 0.936054527759552, -0.09499447792768478, -0.3135640323162079, -0.9448034763336182, 0.021309666335582733, -0.012745201587677002, -0.01210564374923706, 0.16071581102350688, -0.042055713963344774, 0.9853840443116433,0.03768272527286303,0.0333709716796875,-0.3403472900390625,-0.97381591796875
20230215-1541,2023-02-15 15:41:08Z,u02, 161,100,movements,el-ex, lt, nd,281639.60341575, -0.09770068059818521, 0.3096450192852051, 0.1017762624085966, -0.8499067425727844, 0.48934289813041687, 0.9773897528648376, -0.09290624409914017, -0.30472055077552795, -0.9478996992111206, 0.05800926685333252, -0.04527035355567932, -0.1685248613357544, 0.15627552833802758, -0.04034993951967905, 0.9859657392990182,0.04267759167089806,-0.0635986328125,-0.3209228515625,-0.9365692138671875
20230215-1541,2023-02-15 15:41:08Z,u02, 162,100,movements,el-ex, lt, nd,281639.61343875004, -0.09644161425466939, 0.30093000781402396, 0.11120679479681864, -0.6687542200088501, 0.3325681984424591, 0.9697067737579346, -0.09196493029594421, -0.2964085638523102, -0.9506231546401978, 0.07945259660482407, -0.032448917627334595, -0.33431941270828247, 0.15214081427974935, -0.03926300049859267, 0.986427559922451,0.047668736575396733,-0.061767578125,-0.3388214111328125,-1.015106201171875
20230215-1541,2023-02-15 15:41:08Z,u02, 163,100,movements,el-ex, lt, nd,281639.62346175004, -0.09620245873124827, 0.2944966076251269, 0.12056898513695458, -0.42331236600875854, 0.28534847497940063, 0.931187093257904, -0.09191884845495224, -0.29025816917419434, -0.9525235295295715, -0.013183817267417908, 0.0054222941398620605, -0.2899233102798462, 0.14914639111819128, -0.03864679120419279, 0.9866646643777874,0.052485359601619375,-0.01177978515625,-0.3472137451171875,-1.2219696044921875
20230215-1541,2023-02-15 15:41:08Z,u02, 164,100,movements,el-ex, lt, nd,281639.63348475, -0.09579785071608682, 0.29088228625052076, 0.13003517454865973, -0.10850408673286438, 0.35734066367149353, 0.9406927227973938, -0.09163319319486618, -0.28679755330085754, -0.9535987377166748, -0.12221886217594147, -0.042181968688964844, -0.0874779224395752, 0.1475348773876, -0.03786950024642532, 0.986669930451042,0.05728746484120312,-0.045501708984375,-0.3032379150390625,-1.2953948974609375
20230215-1541,2023-02-15 15:41:08Z,u02, 165,100,movements,el-ex, lt, nd,281639.64350775, -0.09474280968779089, 0.28978008020681395, 0.13973560570813431, 0.04037865623831749, 0.3995131552219391, 0.9151611328125, -0.09065690636634827, -0.2857414782047272, -0.9540089964866638, -0.17182491719722748, -0.19350659847259521, -0.0018015503883361816, 0.14714095446450187, -0.03667493270433338, 0.9864775315774803,0.062181568925453366,-0.169036865234375,-0.287078857421875,-1.1454010009765625
20230215-1541,2023-02-15 15:41:08Z,u02, 166,100,movements,el-ex, lt, nd,281639.65353075, -0.09345791220455839, 0.2885619512513521, 0.1490679191063401, -0.122379370033741, 0.39531946182250977, 0.8859345316886902, -0.08946344256401062, -0.2845739424228668, -0.9544705152511597, -0.22451679408550262, -0.23945870995521545, 0.013201653957366943, 0.14666746717210832, -0.035403296921524954, 0.98628491748282,0.06691316099182795,-0.240203857421875,-0.4032135009765625,-0.9721221923828125
20230215-1541,2023-02-15 15:41:08Z,u02, 167,100,movements,el-ex, lt, nd,281639.66355375, -0.09222643101356748, 0.28593387483594057, 0.15810592032555507, -0.21393179893493652, 0.36841675639152527, 0.8906574845314026, -0.08835653215646744, -0.28205353021621704, -0.9553213715553284, -0.2563396394252777, -0.18121856451034546, 0.040267109870910645, 0.14548761325565576, -0.034244274177679744, 0.9861761384318065,0.0715344819864405,-0.2888641357421875,-0.5210723876953125,-0.9547576904296875
20230215-1541,2023-02-15 15:41:08Z,u02, 168,100,movements,el-ex, lt, nd,281639.67357775004, -0.09143295024574788, 0.2827466079933978, 0.167289914658345, -0.24935396015644073, 0.3186590373516083, 0.9126269817352295, -0.08768011629581451, -0.27899423241615295, -0.9562815427780151, -0.25623786449432373, -0.08642327785491943, 0.06486314535140991, 0.14404360148765716, -0.03332665864891322, 0.986069280615268,0.07621069433475794,-0.332275390625,-0.500885009765625,-0.923187255859375
20230215-1541,2023-02-15 15:41:08Z,u02, 169,100,movements,el-ex, lt, nd,281639.68360075, -0.09105097981057597, 0.27966481053871084, 0.1767729385609276, -0.15958049893379211, 0.30036604404449463, 0.9559328556060791, -0.08739259839057922, -0.276033490896225, -0.9571666717529297, -0.24242624640464783, 0.0014973580837249756, 0.09832578897476196, 0.142667256525517, -0.03259937264121865, 0.9859117969689716,0.081001023648164,-0.3469696044921875,-0.4185638427734375,-0.908050537109375
20230215-1541,2023-02-15 15:41:08Z,u02, 170,100,movements,el-ex, lt, nd,281639.69362375, -0.09105477480921242, 0.27769203078549654, 0.186882637713289, -0.07008443027734756, 0.2583030164241791, 1.0014138221740723, -0.08744557946920395, -0.27413684129714966, -0.9577067494392395, -0.1619747281074524, 0.024167299270629883, 0.11069142818450928, 0.14185939161977584, -0.03197692409354677, 0.985621879108798,0.08604036031103796,-0.3392486572265625,-0.311767578125,-0.872222900390625
20230215-1541,2023-02-15 15:41:08Z,u02, 171,100,movements,el-ex, lt, nd,281639.70364675, -0.09148832613880278, 0.2759612222993242, 0.1974032810218381, -0.08117467910051346, 0.250652551651001, 1.0435115098953247, -0.08790399879217148, -0.27247190475463867, -0.9581398367881775, -0.04132280498743057, 0.04465818405151367, 0.12430810928344727, 0.1411938905631605, -0.0315336240173335, 0.9852636347912246,0.09124380570078361,-0.3004302978515625,-0.257781982421875,-0.8503265380859375
20230215-1541,2023-02-15 15:41:08Z,u02, 172,100,movements,el-ex, lt, nd,281639.71366975, -0.09218238537479519, 0.2739884611031808, 0.2084324007597717, -0.1318461149930954, 0.20129193365573883, 1.0891317129135132, -0.08861829340457916, -0.2705732583999634, -0.9586119651794434, 0.11609924584627151, 0.05626356601715088, 0.12748104333877563, 0.1404290804780701, -0.031203989823329555, 0.9848644234536232,0.09668544186030524,-0.1908111572265625,-0.2386322021484375,-0.846038818359375
20230215-1541,2023-02-15 15:41:08Z,u02, 173,100,movements,el-ex, lt, nd,281639.72369275003, -0.09383082675351324, 0.2703546773194157, 0.2199092700683117, -0.3842737376689911, 0.08089148998260498, 1.1859521865844727, -0.09028991311788559, -0.26707324385643005, -0.9594371318817139, 0.31283921003341675, 0.14623889327049255, 0.12630730867385864, 0.1389041388783104, -0.03141770478223947, 0.9845034945641885,0.1023304014722674,-0.0594635009765625,-0.2261810302734375,-0.824371337890625
20230215-1541,2023-02-15 15:41:08Z,u02, 174,100,movements,el-ex, lt, nd,281639.73371575004, -0.09748386632778037, 0.2646075129254231, 0.2323396036184449, -0.48491033911705017, -0.1606188714504242, 1.2888004779815674, -0.09394200891256332, -0.26153045892715454, -0.9606126546859741, 0.453011691570282, 0.17319729924201965, 0.0824999213218689, 0.13647137539045967, -0.03269900770317736, 0.9841550388189996,0.10837518221753054,0.12542724609375,-0.172332763671875,-0.8401031494140625
20230215-1541,2023-02-15 15:41:08Z,u02, 175,100,movements,el-ex, lt, nd,281639.74373875, -0.10381122878159015, 0.2583509651801651, 0.24525529277020436, -0.49034029245376587, -0.4293651282787323, 1.3109650611877441, -0.1001858338713646, -0.2554865777492523, -0.9616076946258545, 0.44211989641189575, 0.09748178720474243, -0.04478567838668823, 0.13397041958456948, -0.035328005799550956, 0.983713626701558,0.114504938900874,0.3042755126953125,-0.0874786376953125,-0.835601806640625
20230215-1541,2023-02-15 15:41:08Z,u02, 176,100,movements,el-ex, lt, nd,281639.75376275, -0.11182025327848723, 0.25129261704790595, 0.25821950405777855, -0.6253029108047485, -0.5171381235122681, 1.3231499195098877, -0.108082614839077, -0.24865618348121643, -0.9625425934791565, 0.28767842054367065, -0.01501569151878357, -0.04642951488494873, 0.13121682121443473, -0.038869660062176896, 0.983223593435881,0.1205923077397584,0.3742828369140625,-0.1161956787109375,-0.945587158203125
20230215-1541,2023-02-15 15:41:08Z,u02, 177,100,movements,el-ex, lt, nd,281639.76378575, -0.12037527905637026, 0.2431617586252102, 0.27110367471585983, -0.6767165660858154, -0.5468409061431885, 1.3352104425430298, -0.11655206978321075, -0.2407725751399994, -0.9635580778121948, 0.0924888402223587, -0.0823628157377243, -0.0892372727394104, 0.12802011788378534, -0.0427996158527593, 0.9827177373742798,0.1266683303814157,0.271026611328125,-0.21099853515625,-1.02166748046875
20230215-1541,2023-02-15 15:41:08Z,u02, 178,100,movements,el-ex, lt, nd,281639.77380875003, -0.12877334326882273, 0.23501431036555118, 0.28404605009808964, -0.6172833442687988, -0.5144784450531006, 1.3553812503814697, -0.12488766759634018, -0.2328568994998932, -0.9644587635993958, 0.011499471962451935, -0.110069140791893, -0.06335794925689697, 0.12486063938557752, -0.0466950985560986, 0.9821356899822549,0.13281134731898417,0.072174072265625,-0.2957763671875,-1.0268402099609375
20230215-1541,2023-02-15 15:41:08Z,u02, 179,100,movements,el-ex, lt, nd,281639.78383175004, -0.1368966746336738, 0.2270360294179995, 0.29709714552311767, -0.6191003918647766, -0.5044113993644714, 1.3685553073883057, -0.13296738266944885, -0.2250906080007553, -0.965222179889679, 0.03480745851993561, -0.007148176431655884, 0.00829780101776123, 0.12182203781515255, -0.05048063523621488, 0.9814671345872941,0.1390438620426031,-0.0877227783203125,-0.3444671630859375,-1.05120849609375
20230215-1541,2023-02-15 15:41:08Z,u02, 180,100,movements,el-ex, lt, nd,281639.79385475, -0.144663896627861, 0.2196043841111464, 0.3101591184993, -0.4489113986492157, -0.47685059905052185, 1.3476228713989258, -0.1406976580619812, -0.21784353256225586, -0.9657889604568481, 0.011302992701530457, 0.09075304865837097, 0.07159346342086792, 0.11907886993089917, -0.05409002957802491, 0.9807045867874854,0.14530277121043259,-0.1075439453125,-0.303863525390625,-0.9959259033203125
20230215-1541,2023-02-15 15:41:08Z,u02, 181,100,movements,el-ex, lt, nd,281639.80387775, -0.15197712888393852, 0.21424903235569454, 0.32306208239268597, -0.24565009772777557, -0.4076387882232666, 1.287842035293579, -0.14793136715888977, -0.21261368691921234, -0.9658735394477844, -0.06622585654258728, 0.07201918959617615, 0.0373610258102417, 0.11736281405353466, -0.0573514678173995, 0.9797980840076892,0.15143492222870464,-0.1025390625,-0.162811279296875,-0.91534423828125
20230215-1541,2023-02-15 15:41:08Z,u02, 182,100,movements,el-ex, lt, nd,281639.81390075, -0.15809680061122783, 0.21041873967915156, 0.33541532507571475, -0.14376100897789001, -0.28183239698410034, 1.211173176765442, -0.15396648645401, -0.20886942744255066, -0.9657472968101501, -0.12520845234394073, 0.05310767889022827, -0.007091999053955078, 0.11632702619505873, -0.05995299416075223, 0.978840579602966,0.15730495067825478,-0.1721343994140625,-0.127838134765625,-0.9061737060546875
20230215-1541,2023-02-15 15:41:08Z,u02, 183,100,movements,el-ex, lt, nd,281639.82392475003, -0.1627209617466629, 0.20709677469269314, 0.34702951161946677, -0.13647699356079102, -0.1632375568151474, 1.1296724081039429, -0.15854212641716003, -0.20561958849430084, -0.9657043814659119, -0.1287657469511032, 0.027000173926353455, -0.0009551048278808594, 0.11543042321269094, -0.061835424092758655, 0.9779175823680508,0.16287831681831325,-0.248016357421875,-0.148651123046875,-0.9550018310546875
20230215-1541,2023-02-15 15:41:08Z,u02, 184,100,movements,el-ex, lt, nd,281639.83394775004, -0.16639379056025014, 0.204006165472619, 0.3578471004233213, -0.13300636410713196, -0.12420467287302017, 1.0559827089309692, -0.16219238936901093, -0.20259404182434082, -0.9657377004623413, -0.04383191466331482, 0.007907137274742126, -0.04468405246734619, 0.11456677633942412, -0.0632898819195806, 0.9770410140988931,0.1681062051805297,-0.295928955078125,-0.1680755615234375,-0.971466064453125
20230215-1541,2023-02-15 15:41:08Z,u02, 185,100,movements,el-ex, lt, nd,281639.84397075, -0.16955278651148434, 0.20067380834188278, 0.3679280932603436, -0.1672373116016388, -0.10425679385662079, 1.0014348030090332, -0.16535533964633942, -0.1993296593427658, -0.9658805727958679, 0.04302549362182617, 0.033649712800979614, -0.056641340255737305, 0.11353626490963302, -0.06456955751920014, 0.9762201198859953,0.17301581782706474,-0.2537078857421875,-0.1893310546875,-0.979705810546875
20230215-1541,2023-02-15 15:41:08Z,u02, 186,100,movements,el-ex, lt, nd,281639.85399375, -0.1725195451352893, 0.19789130231995422, 0.377569743620348, -0.05278396978974342, -0.10174570232629776, 0.9470584392547607, -0.16831471025943756, -0.1966022253036499, -0.9659284353256226, 0.07718908786773682, 0.0399097204208374, -0.07452255487442017, 0.11275726304226838, -0.06573879171824581, 0.9753916905839178,0.17769392874774767,-0.1571197509765625,-0.1854400634765625,-1.0252227783203125
20230215-1541,2023-02-15 15:41:08Z,u02, 187,100,movements,el-ex, lt, nd,281639.86401675, -0.17537666528723533, 0.19588306403349254, 0.386726956640219, -0.0340644046664238, -0.11407720297574997, 0.8814070224761963, -0.1711423248052597, -0.19463278353214264, -0.965830385684967, 0.07563742995262146, 0.033881425857543945, -0.048909544944763184, 0.11234196740154298, -0.06681375614402277, 0.9745534250755551,0.18210105533632362,-0.1014862060546875,-0.154205322265625,-1.0277862548828125
20230215-1541,2023-02-15 15:41:08Z,u02, 188,100,movements,el-ex, lt, nd,281639.87403975, -0.17820402253446121, 0.1936815694139843, 0.3953272955650224, -0.09084885567426682, -0.1128726527094841, 0.8602786064147949, -0.17394793033599854, -0.1924729198217392, -0.9657620191574097, 0.030545681715011597, 0.0322098582983017, -0.022885382175445557, 0.11182341017937536, -0.06793019355660498, 0.9737520182371919,0.18624721715620604,-0.08856201171875,-0.1604461669921875,-1.035919189453125
20230215-1541,2023-02-15 15:41:08Z,u02, 189,100,movements,el-ex, lt, nd,281639.88406275003, -0.18080276753310803, 0.1909806919151097, 0.40372001452375933, -0.13018018007278442, -0.0755378007888794, 0.8513133525848389, -0.17654994130134583, -0.18982185423374176, -0.9658145904541016, -0.02485094964504242, 0.018419861793518066, -0.017049789428710938, 0.11104552539201928, -0.06900439801275896, 0.9729755531429307,0.19033073342559473,-0.11456298828125,-0.1601715087890625,-0.9987640380859375
20230215-1541,2023-02-15 15:41:08Z,u02, 190,100,movements,el-ex, lt, nd,281639.89408675, -0.18300627079635268, 0.18812234316265494, 0.41184919780482737, -0.13519863784313202, -0.076380155980587, 0.8035051226615906, -0.17877569794654846, -0.18701469898223877, -0.9659527540206909, -0.04113410413265228, 0.012530431151390076, -0.016789495944976807, 0.11015472580635711, -0.06992534546463194, 0.9722229896257268,0.19431593319611176,-0.1751556396484375,-0.1655120849609375,-0.98370361328125
20230215-1541,2023-02-15 15:41:08Z,u02, 191,100,movements,el-ex, lt, nd,281639.90410975, -0.1851193639389184, 0.1848091207288116, 0.41927484115811176, -0.24739967286586761, -0.058748435229063034, 0.7528667449951172, -0.180929496884346, -0.1837589144706726, -0.9661765694618225, -0.036264240741729736, 0.028454944491386414, 0.013021111488342285, 0.10901920505677007, -0.07089799531058817, 0.971539346291786,0.1979885769846111,-0.2173004150390625,-0.172821044921875,-0.9811859130859375
20230215-1541,2023-02-15 15:41:08Z,u02, 192,100,movements,el-ex, lt, nd,281639.91413275, -0.186936682056028, 0.1805400089518077, 0.42601278163316963, -0.3123299479484558, -0.06843701750040054, 0.6988106966018677, -0.18282918632030487, -0.1795608252286911, -0.9666081666946411, -0.018022388219833374, -0.003453090786933899, 0.07305353879928589, 0.10737556611334087, -0.07187763113112951, 0.9709498317113628,0.20139606398958748,-0.21893310546875,-0.1659698486328125,-0.9839324951171875
20230215-1541,2023-02-15 15:41:08Z,u02, 193,100,movements,el-ex, lt, nd,281639.92415575, -0.1891519796359525, 0.1765051096761518, 0.4321053563733181, -0.24313592910766602, -0.146660715341568, 0.6249035000801086, -0.18510477244853973, -0.17559006810188293, -0.9669045209884644, -0.007888510823249817, -0.07477614283561707, 0.00888150930404663, 0.10587001402116893, -0.07307037606072875, 0.9703862402003676,0.20445733315618736,-0.2088470458984375,-0.160858154296875,-0.9055938720703125
20230215-1541,2023-02-15 15:41:08Z,u02, 194,100,movements,el-ex, lt, nd,281639.93417875003, -0.19180919452295778, 0.17331458855245477, 0.4376374415657689, -0.16213826835155487, -0.1810610294342041, 0.5581985116004944, -0.1877792328596115, -0.17244821786880493, -0.9669542908668518, -0.005641311407089233, -0.08985036611557007, 0.005772650241851807, 0.10480559170104363, -0.07442210610221511, 0.9698218233273611,0.20717821612873125,-0.1959075927734375,-0.2173004150390625,-0.9227294921875
20230215-1541,2023-02-15 15:41:08Z,u02, 195,100,movements,el-ex, lt, nd,281639.94420175004, -0.1945024246620497, 0.170902152210406, 0.4426035116529089, -0.13154791295528412, -0.18672052025794983, 0.4973050355911255, -0.1904626339673996, -0.17007142305374146, -0.9668503999710083, 0.0017723292112350464, -0.04771725833415985, 0.039177119731903076, 0.10410751005657304, -0.07573921482986207, 0.9692786283767135,0.2095806089260494,-0.19091796875,-0.266815185546875,-0.970428466796875
20230215-1541,2023-02-15 15:41:08Z,u02, 196,100,movements,el-ex, lt, nd,281639.95422475, -0.19720309938468056, 0.16855468606972843, 0.4470979559014841, -0.14168709516525269, -0.1956796497106552, 0.4585736095905304, -0.19315077364444733, -0.16775768995285034, -0.9667213559150696, 0.010518193244934082, -0.004239380359649658, 0.06016618013381958, 0.10343059590516195, -0.0770807755986797, 0.96877343633122,0.21175146406784995,-0.1912078857421875,-0.2440948486328125,-0.9458465576171875
20230215-1541,2023-02-15 15:41:08Z,u02, 197,100,movements,el-ex, lt, nd,281639.96424775, -0.1997878325818331, 0.16621591683141712, 0.45121846998291637, -0.15864862501621246, -0.1783914715051651, 0.42926567792892456, -0.1957261711359024, -0.16545161604881287, -0.966600775718689, 0.00346529483795166, -0.036498457193374634, 0.031114935874938965, 0.10273742638823764, -0.07838777830825647, 0.9683037035203675,0.21374791894014855,-0.1850128173828125,-0.188262939453125,-0.9112548828125
20230215-1541,2023-02-15 15:41:08Z,u02, 198,100,movements,el-ex, lt, nd,281639.97427175, -0.20207016833943459, 0.1636165877751434, 0.4551250322270376, -0.18377022445201874, -0.15170501172542572, 0.42596468329429626, -0.198017418384552, -0.1628875583410263, -0.9665696024894714, 0.008609935641288757, -0.07887271046638489, 0.017686545848846436, 0.10188336286261475, -0.07959266037319293, 0.9678688443601102,0.21567261445365837,-0.1848907470703125,-0.179840087890625,-0.917083740234375
20230215-1541,2023-02-15 15:41:08Z,u02, 199,100,movements,el-ex, lt, nd,281639.98429475003, -0.20425424094758052, 0.1610808357888142, 0.4588536283247195, -0.14616759121418, -0.15647952258586884, 0.39032548666000366, -0.20021113753318787, -0.1603851467370987, -0.9665361642837524, 0.05105634033679962, -0.0922698974609375, -0.03485238552093506, 0.10104720909616131, -0.0807551397803741, 0.9674480878695393,0.2175137992268123,-0.1977081298828125,-0.2249908447265625,-0.9442291259765625
20230215-1541,2023-02-15 15:41:08Z,u02, 200,100,movements,el-ex, lt, nd,281639.99431775004, -0.20640824642048616, 0.15951520724915177, 0.4625271539707537, 0.013811700977385044, -0.14901414513587952, 0.3835485279560089, -0.20234380662441254, -0.15883958339691162, -0.9663472175598145, 0.06536552309989929, -0.07767164707183838, -0.09416908025741577, 0.10067748454741124, -0.08179505523571505, 0.9670018025575944,0.21927383436858394,-0.1671600341796875,-0.2498321533203125,-0.9677581787109375
20230215-1541,2023-02-15 15:41:08Z,u02, 201,100,movements,el-ex, lt, nd,281640.00434075, -0.20845664655756546, 0.15992270352865323, 0.46650262857357916, 0.2310907393693924, -0.129326730966568, 0.35326287150382996, -0.20430943369865417, -0.15924189984798431, -0.9658673405647278, 0.08925803005695343, -0.059157148003578186, -0.13252133131027222, 0.10126249643662004, -0.08253634836136235, 0.9664691726225357,0.2210678450714654,-0.14129638671875,-0.24560546875,-1.03466796875
20230215-1541,2023-02-15 15:41:08Z,u02, 202,100,movements,el-ex, lt, nd,281640.01436375, -0.21018169910573567, 0.16252508163574814, 0.4705923065144656, 0.45124998688697815, -0.09248136729001999, 0.329271525144577, -0.20588815212249756, -0.16181053221225739, -0.965104877948761, 0.09039424359798431, -0.02567422389984131, -0.08964359760284424, 0.10287510935942865, -0.0828509113596409, 0.9658741044382939,0.22279949669593482,-0.12701416015625,-0.2292938232421875,-1.0849609375
20230215-1541,2023-02-15 15:41:08Z,u02, 203,100,movements,el-ex, lt, nd,281640.02438675, -0.21154682165791747, 0.16645319151071192, 0.4747745812262146, 0.4740856885910034, -0.043412622064352036, 0.29458287358283997, -0.20707038044929504, -0.16568560898303986, -0.9641940593719482, 0.0669030249118805, -0.01401713490486145, -0.03701132535934448, 0.10508944301216211, -0.08282023447159745, 0.9652421486999243,0.22450979497918322,-0.1111602783203125,-0.2021331787109375,-1.086883544921875
20230215-1541,2023-02-15 15:41:08Z,u02, 204,100,movements,el-ex, lt, nd,281640.03440975, -0.21221270536474177, 0.17072059449509394, 0.4783901547719621, 0.5411925911903381, 0.03341211751103401, 0.2205483317375183, -0.20756156742572784, -0.16989250481128693, -0.9633559584617615, -0.0106545090675354, -0.004973217844963074, -0.06034088134765625, 0.10736379404195259, -0.08243197733415929, 0.9646868655565085,0.22595825711939654,-0.1250762939453125,-0.180877685546875,-1.0233612060546875
20230215-1541,2023-02-15 15:41:08Z,u02, 205,100,movements,el-ex, lt, nd,281640.04443375004, -0.2120464432218453, 0.17575010153876122, 0.4814240533806312, 0.5682134032249451, 0.09421208500862122, 0.14436084032058716, -0.2072189301252365, -0.17484673857688904, -0.9625429511070251, -0.05443890392780304, -0.04756537079811096, -0.08681917190551758, 0.10988374170929843, -0.08157258825476502, 0.9642030120800107,0.22712124763333671,-0.17364501953125,-0.174896240234375,-1.001434326171875
20230215-1541,2023-02-15 15:41:08Z,u02, 206,100,movements,el-ex, lt, nd,281640.05445675, -0.21152500649390882, 0.18145620343931665, 0.48374504957848374, 0.6555672287940979, 0.07442692667245865, 0.06407026201486588, -0.20650416612625122, -0.1804620623588562, -0.9616597294807434, -0.053139522671699524, -0.0759161114692688, -0.09292089939117432, 0.11265593985846029, -0.08049077701818501, 0.9637861577263301,0.2279168653330546,-0.2501220703125,-0.195526123046875,-1.04351806640625
20230215-1541,2023-02-15 15:41:08Z,u02, 207,100,movements,el-ex, lt, nd,281640.06447975, -0.21147147851615739, 0.18766503763066544, 0.48561691603672275, 0.6149126291275024, 0.014678377658128738, 0.0443812720477581, -0.20621353387832642, -0.18656544387340546, -0.9605568051338196, -0.04764707386493683, -0.07083508372306824, -0.04385298490524292, 0.11570161024918454, -0.07959114043423096, 0.9633769198440975,0.22843674758639623,-0.26239013671875,-0.2404632568359375,-1.052520751953125
20230215-1541,2023-02-15 15:41:08Z,u02, 208,100,movements,el-ex, lt, nd,281640.07450275, -0.211868073808692, 0.19320218723518773, 0.48755366904660297, 0.5683214068412781, -0.026483438909053802, 0.09338130801916122, -0.20637406408786774, -0.19200249016284943, -0.9594502449035645, -0.030259370803833008, -0.0035083889961242676, 0.06247764825820923, 0.11847694751745802, -0.0789815485239666, 0.9629558080413831,0.22900061715619396,-0.2556915283203125,-0.2684478759765625,-1.0420074462890625
20230215-1541,2023-02-15 15:41:08Z,u02, 209,100,movements,el-ex, lt, nd,281640.08452575, -0.21315255325121463, 0.19879365557731063, 0.49008603900031256, 0.6369683742523193, -0.1434505432844162, 0.15250834822654724, -0.20737594366073608, -0.19748689234256744, -0.9581201076507568, 0.01073579490184784, 0.033454909920692444, 0.09076482057571411, 0.1214015118565714, -0.07875033220524714, 0.9624222332301194,0.22979039345099272,-0.2489471435546875,-0.2253570556640625,-0.9449615478515625
20230215-1541,2023-02-15 15:41:08Z,u02, 210,100,movements,el-ex, lt, nd,281640.09454875, -0.21635205807799246, 0.20441990118063388, 0.49288004876009334, 0.5667387247085571, -0.39824342727661133, 0.1339130997657776, -0.2101985365152359, -0.20299917459487915, -0.9563513398170471, 0.040749549865722656, 0.06789785623550415, 0.1084204912185669, 0.12457198085024852, -0.07941124374688358, 0.9617740337584616,0.23057830188515896,-0.2202606201171875,-0.175445556640625,-0.8768157958984375
20230215-1541,2023-02-15 15:41:08Z,u02, 211,100,movements,el-ex, lt, nd,281640.10457175004, -0.2221810875762165, 0.20887391409928296, 0.495649922910968, 0.4060616195201874, -0.6374349594116211, 0.20644550025463104, -0.2155681550502777, -0.20735841989517212, -0.9542184472084045, -0.0032887905836105347, 0.16457277536392212, 0.12324011325836182, 0.12748519701296102, -0.08147577633806027, 0.9610576069433185,0.23125165130718234,-0.1746063232421875,-0.1568603515625,-0.8525390625
20230215-1541,2023-02-15 15:41:08Z,u02, 212,100,movements,el-ex, lt, nd,281640.11459475, -0.22972630453639106, 0.21102883839080372, 0.49871959329369153, 0.1633043736219406, -0.718654453754425, 0.27658647298812866, -0.22265946865081787, -0.20946602523326874, -0.9521274566650391, -0.07035519182682037, 0.22519785165786743, 0.21485334634780884, 0.1295155156622986, -0.08462854146569032, 0.9603097673524861,0.232096664170643,-0.1894378662109375,-0.0856781005859375,-0.855499267578125
20230215-1541,2023-02-15 15:41:08Z,u02, 213,100,movements,el-ex, lt, nd,281640.12461875, -0.23754404977585186, 0.21078065776644256, 0.5018912557567794, -0.07309632003307343, -0.7156003713607788, 0.3354508578777313, -0.23010830581188202, -0.20922334492206573, -0.9504082202911377, -0.06896409392356873, 0.23852023482322693, 0.2409660816192627, 0.13044345504899457, -0.08820660370836904, 0.95961203058301,0.23312808874366725,-0.2543182373046875,-0.012481689453125,-0.783447265625
20230215-1541,2023-02-15 15:41:08Z,u02, 214,100,movements,el-ex, lt, nd,281640.13464175, -0.24571424878060213, 0.20806763917694696, 0.5049869713835006, -0.2783823609352112, -0.7930101752281189, 0.38452279567718506, -0.23800276219844818, -0.2065695971250534, -0.9490435719490051, 0.02457796037197113, 0.1853751540184021, 0.1632465124130249, 0.13024503339936155, -0.09227378637971918, 0.958977511676336,0.23427299652926412,-0.3124542236328125,0.03253173828125,-0.7093963623046875
20230215-1541,2023-02-15 15:41:08Z,u02, 215,100,movements,el-ex, lt, nd,281640.14466475, -0.25469230916113617, 0.2041869323391406, 0.507957418341839, -0.31781941652297974, -0.8718307018280029, 0.3498385548591614, -0.24671374261379242, -0.20277105271816254, -0.9476372003555298, 0.13120457530021667, 0.03574834764003754, 0.07117235660552979, 0.12959202012317816, -0.09688816407470434, 0.9583356091574071,0.23539637502688876,-0.2601776123046875,0.0128326416015625,-0.7357330322265625
20230215-1541,2023-02-15 15:41:08Z,u02, 216,100,movements,el-ex, lt, nd,281640.1546874167, -0.26437600475238887, 0.20022714490648982, 0.51010880847842, -0.319853812456131, -0.9734526872634888, 0.25436022877693176, -0.25608646869659424, -0.19889193773269653, -0.9459713101387024, 0.1666698157787323, -0.03934352099895477, -0.05328094959259033, 0.12895661388573645, -0.10190456679434626, 0.9577282670754048,0.23609759309086795,-0.1613922119140625,-0.087249755859375,-0.8339385986328125
20230215-1541,2023-02-15 15:41:08Z,u02, 217,100,movements,el-ex, lt, nd,281640.1647104167, -0.2746136502744985, 0.19709100023271353, 0.511491858421883, -0.18216346204280853, -0.9975087642669678, 0.16999419033527374, -0.26592522859573364, -0.1958174854516983, -0.9438958168029785, 0.14051315188407898, -0.0497879683971405, -0.09682983160018921, 0.12874728439706984, -0.10712720709563579, 0.9571260754831197,0.23634185324585985,-0.0913238525390625,-0.2196197509765625,-0.935791015625
20230215-1541,2023-02-15 15:41:08Z,u02, 218,100,movements,el-ex, lt, nd,281640.1747334167, -0.2845807233468814, 0.1956006682825503, 0.5124354778223302, -0.07252058386802673, -0.9516541957855225, 0.0831567645072937, -0.27540138363838196, -0.1943557858467102, -0.9414775371551514, 0.09632408618927002, -0.042338550090789795, -0.05341076850891113, 0.12926876914345903, -0.11203046862985025, 0.9565123852408378,0.23626864137283296,-0.103607177734375,-0.2429351806640625,-1.037200927734375
20230215-1541,2023-02-15 15:41:08Z,u02, 219,100,movements,el-ex, lt, nd,281640.1847564167, -0.2936711140895388, 0.19490921690772478, 0.5128010245528395, -0.009505300782620907, -0.8307029604911804, 0.030582424253225327, -0.2839871048927307, -0.19367747008800507, -0.939063549041748, 0.03496354818344116, 7.396936416625977e-05, -0.026176869869232178, 0.130034584085424, -0.11644409530582085, 0.9559697088083824,0.23591052512825217,-0.1500396728515625,-0.24493408203125,-1.0230712890625
20230215-1541,2023-02-15 15:41:08Z,u02, 220,100,movements,el-ex, lt, nd,281640.19478041667, -0.3010525469493782, 0.1954540593986831, 0.5131773785851889, 0.1392436921596527, -0.6403173208236694, 0.006211037747561932, -0.29087960720062256, -0.19421197474002838, -0.936840832233429, -0.012297391891479492, -0.022554397583007812, -0.05742180347442627, 0.13118523616313105, -0.11987499678149331, 0.9554739666844148,0.23556283029465913,-0.213592529296875,-0.2130584716796875,-0.9754791259765625
20230215-1541,2023-02-15 15:41:08Z,u02, 221,100,movements,el-ex, lt, nd,281640.2048034167, -0.30675913829220547, 0.1974597825169442, 0.5137339693239426, 0.2954614460468292, -0.4754825532436371, -0.02064254693686962, -0.2961027920246124, -0.1961791068315506, -0.9347924590110779, -0.043817371129989624, -0.049182191491127014, -0.15988826751708984, 0.13284106664215248, -0.12229894491746555, 0.9550073526889136,0.23528118154848254,-0.2778472900390625,-0.1970062255859375,-0.9637603759765625
20230215-1541,2023-02-15 15:41:08Z,u02, 222,100,movements,el-ex, lt, nd,281640.2148264167, -0.31105439016675657, 0.20110190675476372, 0.5147042501436806, 0.4446783661842346, -0.3442491590976715, -0.012060243636369705, -0.2998945415019989, -0.199749156832695, -0.9328255653381348, -0.04126161336898804, -0.06434996426105499, -0.20537322759628296, 0.13513043398745223, -0.12380218619208098, 0.9545267182329288,0.23514151574741343,-0.3245849609375,-0.2346038818359375,-1.0480499267578125
20230215-1541,2023-02-15 15:41:08Z,u02, 223,100,movements,el-ex, lt, nd,281640.2248494167, -0.31395195607725174, 0.20542164978194294, 0.5162068836931001, 0.47297224402427673, -0.1656104326248169, 0.02136050909757614, -0.30232691764831543, -0.2039799690246582, -0.9311233162879944, -0.02900254726409912, -0.03887893259525299, -0.16917264461517334, 0.13760823757777688, -0.12450830485241873, 0.9540460488370168,0.23528240995341748,-0.3448486328125,-0.2563323974609375,-1.1262054443359375
20230215-1541,2023-02-15 15:41:08Z,u02, 224,100,movements,el-ex, lt, nd,281640.2348724167, -0.3147932123435062, 0.20990946386274642, 0.5181789611633003, 0.5060073733329773, 0.0689685121178627, 0.0629604160785675, -0.30282363295555115, -0.2083713561296463, -0.9299888014793396, -0.016008883714675903, 0.009457781910896301, -0.13997268676757812, 0.1399516223179373, -0.12417378490445732, 0.953628740918066,0.23576806874054285,-0.3347015380859375,-0.2610015869140625,-1.126068115234375
20230215-1541,2023-02-15 15:41:08Z,u02, 225,100,movements,el-ex, lt, nd,281640.24489541666, -0.31374461452989255, 0.21449554527839695, 0.5206249520999469, 0.5257574319839478, 0.2423402965068817, 0.10785359144210815, -0.3015501797199249, -0.2128545641899109, -0.929387092590332, 0.012533336877822876, 0.03772944211959839, -0.1118726134300232, 0.14214565309341606, -0.12288635822966111, 0.9532644308811191,0.23660164648617146,-0.3273468017578125,-0.21697998046875,-1.080841064453125
20230215-1541,2023-02-15 15:41:08Z,u02, 226,100,movements,el-ex, lt, nd,281640.2549184167, -0.3112842733450237, 0.21925645385082043, 0.5235154807046882, 0.5398005247116089, 0.3616754710674286, 0.13156956434249878, -0.29894888401031494, -0.21750393509864807, -0.9291509985923767, 0.06100320816040039, 0.04808560013771057, -0.09713983535766602, 0.14427813359884673, -0.12086487564683716, 0.952920812486653,0.23773380912615105,-0.3056488037109375,-0.186553955078125,-1.0580596923828125
20230215-1541,2023-02-15 15:41:08Z,u02, 227,100,movements,el-ex, lt, nd,281640.2649424167, -0.30795868890390926, 0.2237206168874506, 0.5266077690094928, 0.5307633876800537, 0.43122661113739014, 0.1838235855102539, -0.29556000232696533, -0.22185903787612915, -0.9292054772377014, 0.08828449249267578, 0.03817376494407654, -0.09470498561859131, 0.14617365409235564, -0.1184505070504789, 0.9526045337708785,0.2390548080462974,-0.2641143798828125,-0.16876220703125,-1.02496337890625
20230215-1541,2023-02-15 15:41:08Z,u02, 228,100,movements,el-ex, lt, nd,281640.2749654167, -0.30437824018531784, 0.22928650240917337, 0.5314837183379161, 0.8507459163665771, 0.4658530056476593, 0.35936239361763, -0.2918565571308136, -0.22728276252746582, -0.9290652871131897, 0.12017977237701416, -0.0033690929412841797, -0.14266622066497803, 0.1486543421966595, -0.11562547196202953, 0.9520389033033546,0.24115221303886256,-0.217864990234375,-0.1744232177734375,-1.0269317626953125
20230215-1541,2023-02-15 15:41:08Z,u02, 229,100,movements,el-ex, lt, nd,281640.2849884167, -0.3009876742758848, 0.23726875111103168, 0.5373323632772273, 0.9579811096191406, 0.49882081151008606, 0.23491047322750092, -0.28815776109695435, -0.23504877090454102, -0.9282872080802917, 0.0997115969657898, 0.08352901041507721, -0.16950631141662598, 0.15233816534852013, -0.11246985025255653, 0.9512387208886419,0.24349256983284256,-0.1947174072265625,-0.2055511474609375,-1.040618896484375
20230215-1541,2023-02-15 15:41:08Z,u02, 230,100,movements,el-ex, lt, nd,281640.29501141666, -0.29678767211769314, 0.2450655335577923, 0.5416920866819963, 0.7310086488723755, 0.5554723739624023, 0.10066211968660355, -0.28371185064315796, -0.24261990189552307, -0.9277085661888123, -0.007532775402069092, 0.24390164017677307, -0.03310680389404297, 0.155736421964555, -0.10904992635835398, 0.9506452277975865,0.24521003194387664,-0.155364990234375,-0.2211761474609375,-1.0967254638671875
20230215-1541,2023-02-15 15:41:08Z,u02, 231,100,movements,el-ex, lt, nd,281640.30503441667, -0.29122543459749645, 0.24877313452815436, 0.5427541391473858, 0.03442441672086716, 0.5751347541809082, -0.1072131022810936, -0.2782871425151825, -0.24621504545211792, -0.9284042119979858, -0.09134188294410706, 0.2836143374443054, 0.12910312414169312, 0.15685507413725255, -0.10580346091720154, 0.9506681875620823,0.24582943444273497,-0.248748779296875,-0.0558929443359375,-1.050811767578125
20230215-1541,2023-02-15 15:41:08Z,u02, 232,100,movements,el-ex, lt, nd,281640.3150574167, -0.2851490441942183, 0.24571681086526986, 0.5404985790155656, -0.6985193490982056, 0.5077924728393555, -0.10761763155460358, -0.2728511095046997, -0.24325166642665863, -0.9307958483695984, -0.12764644622802734, 0.15549838542938232, 0.2456762194633484, 0.15455183992322138, -0.1035172096702294, 0.951384588729643,0.2454896634962985,-0.327545166015625,0.0246124267578125,-0.87493896484375
20230215-1541,2023-02-15 15:41:08Z,u02, 233,100,movements,el-ex, lt, nd,281640.3250804167, -0.28054165610660026, 0.23897040841939818, 0.5387657376875452, -0.6024222373962402, 0.3387185037136078, 0.15228323638439178, -0.26900795102119446, -0.23670241236686707, -0.9335987567901611, -0.10927280783653259, -0.19431260228157043, 0.2309620976448059, 0.15071720042394188, -0.10239596161563892, 0.9520978583875798,0.24557915900418312,-0.397247314453125,0.0050506591796875,-0.72491455078125
20230215-1541,2023-02-15 15:41:08Z,u02, 234,100,movements,el-ex, lt, nd,281640.3351034167, -0.2779773063679708, 0.23278539944865456, 0.5392038971278912, -0.5806365013122559, 0.17112258076667786, 0.24553915858268738, -0.2670096457004547, -0.2306886911392212, -0.9356754422187805, -0.04375100135803223, -0.4097989797592163, 0.04611861705780029, 0.14750626339383183, -0.10200083418735242, 0.9524084548717715,0.24648690235569898,-0.395416259765625,-0.2313995361328125,-0.6842803955078125
20230215-1541,2023-02-15 15:41:08Z,u02, 235,100,movements,el-ex, lt, nd,281640.34512741666, -0.27717971889066945, 0.22637093721684956, 0.5397629747431769, -0.6100062727928162, 0.01679985225200653, 0.1888485997915268, -0.26666271686553955, -0.2244425266981125, -0.9372921586036682, 0.0210723876953125, -0.18957416713237762, 0.04790312051773071, 0.14440853612744287, -0.10247004250132169, 0.9526134016988811,0.24733316616026307,-0.3475799560546875,-0.6046600341796875,-0.77685546875
20230215-1541,2023-02-15 15:41:08Z,u02, 236,100,movements,el-ex, lt, nd,281640.35515041667, -0.2777371567015827, 0.22007079771542237, 0.5393268026876964, -0.5899534821510315, -0.16357311606407166, 0.07476037740707397, -0.26756754517555237, -0.21829871833324432, -0.9384845495223999, 0.05592802166938782, 0.026663601398468018, 0.12996715307235718, 0.14147969922787806, -0.10363981575583724, 0.952858238478649,0.24759538482123664,-0.2768707275390625,-0.5474700927734375,-0.946044921875
20230215-1541,2023-02-15 15:41:08Z,u02, 237,100,movements,el-ex, lt, nd,281640.3651734167, -0.28020942741382415, 0.21546403249344473, 0.5385903355724143, -0.3261014223098755, -0.3497552275657654, 0.04788511246442795, -0.2701621651649475, -0.21380075812339783, -0.9387766718864441, 0.04744476079940796, 0.14745554327964783, 0.06067919731140137, 0.13957076880306615, -0.10550671886352603, 0.9529742191204232,0.24744364756857154,-0.2202911376953125,-0.2967529296875,-0.8114471435546875
20230215-1541,2023-02-15 15:41:08Z,u02, 238,100,movements,el-ex, lt, nd,281640.3751964167, -0.2841883735104548, 0.21273772985071154, 0.5383282119595778, -0.22136621177196503, -0.4495457410812378, 0.04692477732896805, -0.2740577757358551, -0.21113669872283936, -0.9382503032684326, 0.03151920437812805, 0.15188683569431305, 0.1267574429512024, 0.1387608027286786, -0.1077974542667674, 0.9528827668125174,0.2472639818341832,-0.2144317626953125,-0.10986328125,-0.855621337890625
20230215-1541,2023-02-15 15:41:08Z,u02, 239,100,movements,el-ex, lt, nd,281640.3852194167, -0.28914691417300353, 0.21066297034857898, 0.5380059583463516, -0.1877547800540924, -0.5651466846466064, -0.002817930420860648, -0.27883103489875793, -0.20910826325416565, -0.9372977018356323, 0.010856062173843384, 0.12057678401470184, 0.1480521559715271, 0.13837574611839054, -0.11046855245459164, 0.9527174664480557,0.24693779281243747,-0.23248291015625,-0.0579986572265625,-0.853515625
20230215-1541,2023-02-15 15:41:08Z,u02, 240,100,movements,el-ex, lt, nd,281640.3952424167, -0.295412517535055, 0.20882305614326246, 0.5369544361678805, -0.2394254356622696, -0.7249507308006287, -0.08831126242876053, -0.28480979800224304, -0.20730866491794586, -0.9358987808227539, -0.007716566324234009, 0.041079431772232056, 0.14880472421646118, 0.1382202407873064, -0.11377953595276338, 0.9525523164621547,0.24615741469970653,-0.25531005859375,-0.0656890869140625,-0.7905120849609375
20230215-1541,2023-02-15 15:41:08Z,u02, 241,100,movements,el-ex, lt, nd,281640.40526541666, -0.3027898493500848, 0.2059168837455717, 0.5348387366840017, -0.43250522017478943, -0.8268800377845764, -0.12930135428905487, -0.2918848395347595, -0.20446476340293884, -0.9343432784080505, -0.04686039686203003, -0.020022526383399963, 0.1801166534423828, 0.1376311584269155, -0.11783892422875811, 0.9524712753131271,0.24488805817987067,-0.2784881591796875,-0.1265411376953125,-0.789886474609375
20230215-1541,2023-02-15 15:41:08Z,u02, 242,100,movements,el-ex, lt, nd,281640.4152894167, -0.31085076556310953, 0.20178927649200165, 0.5321940663495367, -0.4760279357433319, -0.8795392513275146, -0.10974523425102234, -0.2996625304222107, -0.20042261481285095, -0.9327556490898132, -0.10139963030815125, -0.06848302483558655, 0.1403820514678955, 0.13650761951351184, -0.1224247949175666, 0.9524274552857639,0.24343347879023947,-0.3123779296875,-0.1972503662109375,-0.7707366943359375
20230215-1541,2023-02-15 15:41:08Z,u02, 243,100,movements,el-ex, lt, nd,281640.4253124167, -0.31891575504084885, 0.19740286822121383, 0.5297853316609566, -0.5095219612121582, -0.8212516903877258, -0.07209865748882294, -0.30744802951812744, -0.19612330198287964, -0.9311344623565674, -0.13984820246696472, -0.06033112108707428, 0.10302478075027466, 0.13526563474479497, -0.12702752224869604, 0.9523352335389288,0.24212531677927962,-0.3676300048828125,-0.2490234375,-0.7606048583984375
20230215-1541,2023-02-15 15:41:08Z,u02, 244,100,movements,el-ex, lt, nd,281640.4353354167, -0.3264450646400251, 0.192562102248784, 0.527362434740907, -0.5374662280082703, -0.7806904315948486, -0.07763297110795975, -0.3147508203983307, -0.191374272108078, -0.9296815395355225, -0.13625335693359375, 0.004698261618614197, 0.08568745851516724, 0.13373312222511638, -0.13143316216504164, 0.9522646694077703,0.24089958041168508,-0.4295806884765625,-0.27392578125,-0.8212890625
20230215-1541,2023-02-15 15:41:08Z,u02, 245,100,movements,el-ex, lt, nd,281640.4453584167, -0.33390623544751413, 0.18819960985063192, 0.5249026899167222, -0.4185129702091217, -0.8104645609855652, -0.09808850288391113, -0.3219490647315979, -0.18709060549736023, -0.9280872344970703, -0.09499746561050415, 0.02183791995048523, 0.0009785294532775879, 0.13240583263302477, -0.1357390145755697, 0.9521665802005594,0.23962977343281414,-0.454742431640625,-0.2214813232421875,-0.829681396484375
