SessionID,LoggingTime,UID,RecNo,Hertz,Activity,MoveType,Wrist,Side,TimeStamp,DMRoll,DMPitch,DMYaw,DMRotX,DMRotY,DMRotZ,DMGrvX,DMGrvY,DMGrvZ,DMUAccelX,DMUAccelY,DMUAccelZ,DMQuatX,DMQuatY,DMQuatW,DMQuatZ,AccelroX,AceelroY,AceelroZ
20230421-1511,2023-04-21 15:11:49,u10, 1,100,movements,wr-su, lt, d,957608.1944006251, -0.11290979434825124, 0.006602657446048529, 0.00037315021367717084, 0.05430592969059944, 0.017870256677269936, 0.002419605851173401, -0.11266758292913437, -0.006602609530091286, -0.9936107993125916, -0.0004611089825630188, 0.011271797120571136, -0.03423649072647095, 0.0033065905924471004, -0.056423990339448636, 0.9984014179639096,0.0,-0.1072845458984375,0.004669189453125,-1.028411865234375
20230421-1511,2023-04-21 15:11:49,u10, 2,100,movements,wr-su, lt, d,957608.204422625, -0.11252941457307031, 0.007189928759484525, 0.0005556251158111991, 0.0649641677737236, 0.05472227931022644, 0.015171034261584282, -0.11228916794061661, -0.007189866621047258, -0.9936495423316956, -0.00816374272108078, -0.006832962390035391, -0.019869744777679443, 0.003604890303887347, -0.05623366166142357, 0.9984111476458417,7.520867667994404e-05,-0.118194580078125,-0.004608154296875,-1.024017333984375
20230421-1511,2023-04-21 15:11:49,u10, 3,100,movements,wr-su, lt, d,957608.2144446251, -0.11195671067633656, 0.00784832299773667, 0.0008571435931834698, 0.06972776353359222, 0.05634947121143341, 0.03473062068223953, -0.1117195338010788, -0.007848242297768593, -0.9937087893486023, -0.0020652934908866882, -0.0035348162055015564, -0.007557690143585205, 0.003941982552070336, -0.055947011709447485, 0.9984258949964028,0.0002083443568858251,-0.117889404296875,-0.014923095703125,-1.0041961669921875
20230421-1511,2023-04-21 15:11:49,u10, 4,100,movements,wr-su, lt, d,957608.224466625, -0.11142439238071634, 0.008294323265645222, 0.0013442469784290204, 0.028490804135799408, 0.053374454379081726, 0.04481968656182289, -0.11119014769792557, -0.008294228464365005, -0.9937645196914673, -0.0017401725053787231, -0.027335045859217644, -0.0015204548835754395, 0.004178140169882898, -0.05568010547076076, 0.9984398264081401,0.00044014758861065425,-0.110595703125,-0.014801025390625,-1.0019683837890625
20230421-1511,2023-04-21 15:11:49,u10, 5,100,movements,wr-su, lt, d,957608.2344886251, -0.11106683232488049, 0.008320510353781844, 0.001806156020771111, -0.008940722793340683, 0.02150866761803627, 0.045614372938871384, -0.11083478480577469, -0.008320414461195469, -0.9938040375709534, 0.006571449339389801, -0.0780901089310646, 0.003005087375640869, 0.004203952876090766, -0.05550062210326742, 0.9984495852705652,0.0006707642219455466,-0.1130828857421875,-0.0703125,-0.98614501953125
20230421-1511,2023-04-21 15:11:49,u10, 6,100,movements,wr-su, lt, d,957608.244510625, -0.11095123135941092, 0.008278048261880505, 0.002213955041389607, 0.013095222413539886, 0.00022601516684517264, 0.038194965571165085, -0.1107199415564537, -0.0082779536023736, -0.993817150592804, 0.017381899058818817, -0.046607911586761475, -0.0043212175369262695, 0.004194020598944222, -0.055442081025924045, 0.9984527232061045,0.0008757685146289136,-0.094512939453125,-0.076416015625,-1.00152587890625
20230421-1511,2023-04-21 15:11:49,u10, 7,100,movements,wr-su, lt, d,957608.2545326251, -0.11105133279204628, 0.00816122927216593, 0.0024148235400885593, -0.02088058739900589, -0.03847930207848549, -0.005361298099160194, -0.11081952601671219, -0.008161138743162155, -0.9938070178031921, 0.024805709719657898, -0.0019249217584729195, 0.018831491470336914, 0.004141318907519208, -0.055491718074953206, 0.9984500603944797,0.0009790789986387819,-0.0911102294921875,-0.0264892578125,-0.9825897216796875
20230421-1511,2023-04-21 15:11:49,u10, 8,100,movements,wr-su, lt, d,957608.264555625, -0.11191143107873791, 0.008139041942448064, 0.002081262221041104, -0.01610059291124344, -0.13573820888996124, -0.08012805879116058, -0.11167427897453308, -0.00813895184546709, -0.993711531162262, 0.04566472768783569, -0.09169930219650269, 0.007734417915344238, 0.004121336723223745, -0.0559217990940274, 0.9984263062535534,0.0008114002228958644,-0.0747222900390625,-0.0453948974609375,-0.966949462890625
20230421-1511,2023-04-21 15:11:49,u10, 9,100,movements,wr-su, lt, d,957608.2745776251, -0.11374380306815172, 0.0076085046121548185, 0.0005748985033915836, -0.090001180768013, -0.21808820962905884, -0.18329118192195892, -0.11349541693925858, -0.00760843139141798, -0.9935094118118286, 0.06463673710823059, -0.024373993277549744, 0.03469288349151611, 0.0038144311869346926, -0.056839742416605034, 0.9983760396605091,7.074451593536065e-05,-0.0546875,-0.092864990234375,-0.992218017578125
20230421-1511,2023-04-21 15:11:49,u10, 10,100,movements,wr-su, lt, d,957608.284599625, -0.11584710775172466, 0.007307109227359423, -0.0008834321938413208, -0.006760316900908947, -0.18275126814842224, -0.08640480786561966, -0.1155850738286972, -0.007307044230401516, -0.9932706952095032, 0.013076499104499817, -0.006807337980717421, 0.062316715717315674, 0.003621847214700826, -0.05789238390175193, 0.9983161203853267,-0.0006524803147475008,-0.063934326171875,0.00048828125,-0.9323577880859375
20230421-1511,2023-04-21 15:11:49,u10, 11,100,movements,wr-su, lt, d,957608.2946216251, -0.11679786916126705, 0.007603905474378376, -0.0013143011719275559, 0.06113697588443756, 0.0015243061352521181, -0.01882416382431984, -0.11652912944555283, -0.007603832054883242, -0.9931581616401672, -0.10577619820833206, 0.021199412643909454, 0.06298243999481201, 0.0037571065967232924, -0.058367804776449865, 0.9982877062338829,-0.0008779287351119943,-0.1622772216796875,-0.0186004638671875,-0.9378662109375
20230421-1511,2023-04-21 15:11:49,u10, 12,100,movements,wr-su, lt, d,957608.304643625, -0.11618405062582043, 0.008597444770392326, -0.0013337890939051158, 0.1287013292312622, 0.09930253028869629, -0.0026028496213257313, -0.11591855436563492, -0.008597338572144508, -0.9932215213775635, -0.12088263034820557, 0.08194633573293686, 0.05639290809631348, 0.004252737593115664, -0.05806166779640042, 0.9983035540492224,-0.0009153435705228929,-0.252197265625,0.05267333984375,-0.9236907958984375
20230421-1511,2023-04-21 15:11:49,u10, 13,100,movements,wr-su, lt, d,957608.3146656251, -0.11525328956196632, 0.009739650562109122, -0.001046593771620115, 0.0962725505232811, 0.07833945751190186, 0.028974782675504684, -0.11499284952878952, -0.009739496745169163, -0.9933185577392578, -0.03361252695322037, 0.07033214718103409, 0.008867323398590088, 0.004831582764151552, -0.057596606928430084, 0.9983279534704895,-0.0008028972251284147,-0.193267822265625,0.07061767578125,-0.963531494140625
20230421-1511,2023-04-21 15:11:49,u10, 14,100,movements,wr-su, lt, d,957608.324687625, -0.11480668694777774, 0.010339070042957681, -0.0007599151583305606, 0.03029288910329342, 0.0092282984405756, 0.013525307178497314, -0.11454852670431137, -0.010338885709643364, -0.9933638572692871, 0.015488438308238983, 0.047585587948560715, -0.02651834487915039, 0.00513919822135933, -0.057373013156789596, 0.998339361805166,-0.0006759109654714121,-0.1185302734375,0.048980712890625,-1.0025177001953125
20230421-1511,2023-04-21 15:11:49,u10, 15,100,movements,wr-su, lt, d,957608.334710625, -0.11503756756901205, 0.010413077414666903, -0.0007119130196600445, -0.008587663993239403, -0.04755242541432381, -0.002056581899523735, -0.11477778106927872, -0.010412889532744884, -0.9933366179466248, 0.02842826396226883, 0.03050871193408966, -0.038340628147125244, 0.005177441855378723, -0.05748813926015791, 0.9983325708617925,-0.0006546702960898146,-0.08721923828125,0.02557373046875,-1.0299072265625
20230421-1511,2023-04-21 15:11:49,u10, 16,100,movements,wr-su, lt, d,957608.3447326251, -0.11556857345783865, 0.010304023791154882, -0.0007658823328292587, -0.00992740597575903, -0.052656643092632294, -0.006071803625673056, -0.11530536413192749, -0.010303841903805733, -0.9932766556739807, 0.014215856790542603, 0.024814948439598083, -0.024301469326019287, 0.005121274287546174, -0.057753332133955684, 0.9983175457613707,-0.0006798352467422637,-0.0909881591796875,0.0173492431640625,-1.027496337890625
20230421-1511,2023-04-21 15:11:49,u10, 17,100,movements,wr-su, lt, d,957608.354754625, -0.06494612557164182, 0.029135717964167238, -0.0017594615339747834, -8.249795064330101e-05, -0.04054858162999153, 0.006655177101492882, -0.06487293541431427, -0.02913159504532814, -0.9974682331085205, -0.056953273713588715, 0.04011791944503784, 0.009690523147583008, 0.01453109798445359, -0.03247670542861489, 0.9993659848844746,-0.0013521364060922407,-0.1153106689453125,0.0128173828125,-1.0040283203125
20230421-1511,2023-04-21 15:11:49,u10, 18,100,movements,wr-su, lt, d,957608.3647766251, -0.08485489494781152, 0.02296648447564689, -0.0011495622251239694, -0.007610226981341839, -0.032316483557224274, 0.01740284264087677, -0.08473075181245804, -0.022964466363191605, -0.9961392283439636, -0.038651853799819946, 0.027832016348838806, 0.03282135725021362, 0.011448276418572262, -0.0424185093013014, 0.9990338030332446,-0.0010612736249216597,-0.123931884765625,0.0096893310546875,-0.97357177734375
20230421-1511,2023-04-21 15:11:49,u10, 19,100,movements,wr-su, lt, d,957608.374798625, -0.13070563180198255, 0.011497427672985979, -0.00015136755296726187, 0.002777965273708105, -0.04013286158442497, 0.026885826140642166, -0.13032516837120056, -0.011497174389660358, -0.99140465259552, 0.009811222553253174, -0.015663471072912216, 0.03759300708770752, 0.005731467395529945, -0.06530565705880251, 0.9978487980681796,-0.00045094609418430307,-0.120513916015625,-0.00909423828125,-0.9567413330078125
20230421-1511,2023-04-21 15:11:49,u10, 20,100,movements,wr-su, lt, d,957608.3848206251, -0.15807313346661203, -0.009925052652616615, 0.00011233990421562978, 0.003534188959747553, -0.03308720141649246, 0.021984225139021873, -0.15740790963172913, 0.009924889542162418, -0.98748379945755, 0.033445462584495544, -0.04117489233613014, 0.03127652406692505, -0.0049425792330916795, -0.07895360841873858, 0.99686596677934,0.0004478050868216607,-0.121246337890625,-0.0384674072265625,-0.9534759521484375
20230421-1511,2023-04-21 15:11:49,u10, 21,100,movements,wr-su, lt, d,957608.394842625, -0.15594839473199637, -0.021503383767060003, 0.0003625562850487155, 0.005869514774531126, -0.03697621449828148, 0.02022281102836132, -0.15528114140033722, 0.021501727402210236, -0.9876362681388855, 0.037651121616363525, -0.025514788925647736, 0.023387610912322998, -0.010704696405664908, -0.07789264412833295, 0.9969038036466534,0.0010182059021018126,-0.1225128173828125,-0.017974853515625,-0.961181640625
20230421-1511,2023-04-21 15:11:49,u10, 22,100,movements,wr-su, lt, d,957608.4048646251, -0.14574715767268115, -0.02529884351307938, 0.0007805736509145826, 0.010402880609035492, -0.04258350282907486, 0.014100443571805954, -0.14518523216247559, 0.02529614418745041, -0.989081084728241, 0.028913229703903198, -0.025158818811178207, 0.010412871837615967, -0.012587096718239902, -0.0728081857682587, 0.9972657183658374,0.0013101879936953853,-0.1164398193359375,0.003387451171875,-0.9678497314453125
20230421-1511,2023-04-21 15:11:49,u10, 23,100,movements,wr-su, lt, d,957608.414887625, -0.1365220376906819, -0.024957625592947758, 0.0011261135240975542, 0.01996069960296154, -0.04993569105863571, 0.008380239829421043, -0.13605596125125885, 0.024955034255981445, -0.9903867840766907, 0.017327293753623962, -0.037329915910959244, -0.01191723346710205, -0.012411023560640609, -0.06820970551761898, 0.9975928480150991,0.0014128344624581828,-0.1176605224609375,-0.0054168701171875,-0.991241455078125
20230421-1511,2023-04-21 15:11:49,u10, 24,100,movements,wr-su, lt, d,957608.4249096251, -0.13159512649407965, -0.023456900807376703, 0.00136297733082986, 0.021135609596967697, -0.0631289854645729, 0.008321544155478477, -0.131179541349411, 0.023454749956727028, -0.9910811185836792, 0.014480292797088623, -0.03842362388968468, -0.0129624605178833, -0.011657995048806729, -0.0657535320142239, 0.997766781597578,0.0014510959414514245,-0.1181488037109375,-0.0160675048828125,-1.0067291259765625
20230421-1511,2023-04-21 15:11:49,u10, 25,100,movements,wr-su, lt, d,957608.434931625, -0.13081879215358827, -0.02139755479384963, 0.0014949937735603746, 0.03012431040406227, -0.057848475873470306, 0.006747349165380001, -0.1304161250591278, 0.02139592170715332, -0.991228461265564, 0.007979556918144226, -0.03467106819152832, -0.002133965492248535, -0.010626835671163364, -0.06536698088837206, 0.9978037353659458,0.001445143574175287,-0.1175537109375,-0.0130157470703125,-0.999176025390625
20230421-1511,2023-04-21 15:11:49,u10, 26,100,movements,wr-su, lt, d,957608.4449536251, -0.1308050265013757, -0.019056414184189168, 0.0015660277208778463, 0.006159381475299597, -0.03802629932761192, 0.004480706062167883, -0.1304086446762085, 0.019055260345339775, -0.9912772178649902, -0.005455642938613892, -0.049252405762672424, 0.022618770599365234, -0.009456516765452365, -0.06536035355150838, 0.9978159465954309,0.0014040191020744726,-0.1283721923828125,-0.0207061767578125,-0.98297119140625
20230421-1511,2023-04-21 15:11:49,u10, 27,100,movements,wr-su, lt, d,957608.454975625, -0.1302716412065971, -0.011342407694368239, 0.0016838607711783845, -0.010280046612024307, -0.028047166764736176, 0.014686471782624722, -0.1298951357603073, 0.011342164129018784, -0.9914628863334656, -0.016528233885765076, -0.06390869617462158, 0.040596187114715576, -0.005604345057779735, -0.06509346690273571, 0.9978626996750269,0.0012092666465943207,-0.142852783203125,-0.040496826171875,-0.95660400390625
20230421-1511,2023-04-21 15:11:49,u10, 28,100,movements,wr-su, lt, d,957608.4649976251, -0.13022903473759928, -0.004222498452176252, 0.0018284130264478928, -0.010443088598549366, -0.01309777982532978, 0.015468722209334373, -0.12986008822917938, 0.004222485702484846, -0.9915233254432678, -0.0167006254196167, -0.05895576626062393, 0.03633838891983032, -0.0020472867838993544, -0.06507027058906313, 0.9978779880937001,0.0010496427132773692,-0.14654541015625,-0.060028076171875,-0.9513702392578125
20230421-1511,2023-04-21 15:11:49,u10, 29,100,movements,wr-su, lt, d,957608.475019625, -0.12863210838108047, -0.0026252045360227946, 0.00197937002718425, 0.01856459490954876, -0.004701098892837763, 0.011725915595889091, -0.1282772272825241, 0.0026252015959471464, -0.9917348623275757, -0.013278573751449585, -0.031128622591495514, 0.02037566900253296, -0.001246278690392551, -0.06427293318471312, 0.9979309808349474,0.0010720009345175007,-0.14471435546875,-0.0435333251953125,-0.961639404296875
20230421-1511,2023-04-21 15:11:49,u10, 30,100,movements,wr-su, lt, d,957608.4850426251, -0.12677356854503402, -0.0018265998360567806, 0.0020569030933660134, 0.05953280255198479, -0.003058461472392082, -0.005499463528394699, -0.1264340579509735, 0.0018265987746417522, -0.991973340511322, -0.003448784351348877, -0.0018723771208897233, 0.009093701839447021, -0.0008463186187776438, -0.06334522472159697, 0.9979907070034144,0.0010842379004959357,-0.135040283203125,-0.01324462890625,-0.9792327880859375
20230421-1511,2023-04-21 15:11:49,u10, 31,100,movements,wr-su, lt, d,957608.495064625, -0.1254625918155763, 0.0009096837116539144, 0.0019471819764452938, 0.07853178679943085, 0.006197621580213308, -0.027976274490356445, -0.12513364851474762, -0.0009096835856325924, -0.992139458656311, -0.0006750971078872681, -0.009298448450863361, -0.004518866539001465, 0.0005149815060254781, -0.06268968021435133, 0.9980325229853414,0.0009431615929830469,-0.125762939453125,0.001739501953125,-0.9873504638671875
20230421-1511,2023-04-21 15:11:49,u10, 32,100,movements,wr-su, lt, d,957608.5050866251, -0.12411585080115661, 0.003476314906096808, 0.0017398187081894526, 0.07356533408164978, 0.0031054248102009296, -0.034875355660915375, -0.12379668653011322, -0.003476307960227132, -0.9923015236854553, 0.0016958191990852356, -0.036089733242988586, -0.028191030025482178, 0.0017887598921591068, -0.062016468847689236, 0.9980733178683893,0.0007604362056353955,-0.12506103515625,-0.0253448486328125,-1.0091094970703125
20230421-1511,2023-04-21 15:11:49,u10, 33,100,movements,wr-su, lt, d,957608.515108625, -0.12402673392897734, 0.005304420358690838, 0.0013894290635558602, 0.05583933740854263, -0.02025875262916088, -0.04982767254114151, -0.12370726466178894, -0.005304395686835051, -0.9923045635223389, 0.016544751822948456, -0.03833574429154396, -0.03548169136047363, 0.0026901619366556835, -0.061971550911356726, 0.9980742280884569,0.0005290097794886383,-0.114410400390625,-0.0449676513671875,-1.027374267578125
20230421-1511,2023-04-21 15:11:49,u10, 34,100,movements,wr-su, lt, d,957608.5251306251, -0.12598988400305622, 0.008513254386715905, 0.0009385519403461387, 0.04065783694386482, -0.045803263783454895, -0.05793364346027374, -0.1256522834300995, -0.008513151668012142, -0.992037832736969, 0.028453752398490906, -0.03100711479783058, -0.015377938747406006, 0.004277713135721551, -0.06295071746864081, 0.9980074091595911,0.00020037304635373942,-0.099945068359375,-0.04193115234375,-1.0207061767578125
20230421-1511,2023-04-21 15:11:49,u10, 35,100,movements,wr-su, lt, d,957608.5351526251, -0.12941087369483936, 0.013713044530643108, 0.0003724450096156661, 0.019833248108625412, -0.058562733232975006, -0.07330327481031418, -0.12903782725334167, -0.01371261477470398, -0.9915448427200317, 0.02991671860218048, -0.01572158932685852, 0.011091411113739014, 0.006854160640516584, -0.06465749597838621, 0.9978840011395945,-0.00025751276934317136,-0.0970458984375,-0.035308837890625,-0.992156982421875
20230421-1511,2023-04-21 15:11:49,u10, 36,100,movements,wr-su, lt, d,957608.545174625, -0.13222004036271154, 0.017700273134594227, -0.000325202802287481, -0.022057190537452698, -0.06364564597606659, -0.07157986611127853, -0.13181447982788086, -0.01769934967160225, -0.9911164045333862, 0.02465197443962097, -0.00958336889743805, 0.03869330883026123, 0.008819946630133912, -0.06606072002593322, 0.9977763824438386,-0.0007468887473706569,-0.1031341552734375,-0.025787353515625,-0.968780517578125
20230421-1511,2023-04-21 15:11:49,u10, 37,100,movements,wr-su, lt, d,957608.5551976251, -0.1337402786133299, 0.018089447235761936, -0.0010787994133977376, -0.05298634618520737, -0.07355846464633942, -0.07411253452301025, -0.13332012295722961, -0.018088459968566895, -0.9909079670906067, 0.013889551162719727, -0.022881388664245605, 0.06825476884841919, 0.008988343197935292, -0.06682243941126434, 0.9977237368437485,-0.0011425350803842445,-0.111572265625,-0.034576416015625,-0.9350433349609375
20230421-1511,2023-04-21 15:11:49,u10, 38,100,movements,wr-su, lt, d,957608.565219625, -0.1342853825863612, 0.01684752144712606, -0.0019171093147472948, -0.05304929241538048, -0.05558238923549652, -0.07807635515928268, -0.133863165974617, -0.01684672385454178, -0.9908566474914551, -0.006456702947616577, -0.02688496746122837, 0.06882905960083008, 0.008340367563106977, -0.06709789982195337, 0.9977103738424123,-0.001521522901785469,-0.1296234130859375,-0.0434112548828125,-0.91827392578125
20230421-1511,2023-04-21 15:11:49,u10, 39,100,movements,wr-su, lt, d,957608.5752416251, -0.13432947852277155, 0.01629940336131501, -0.002659417695710586, -0.02320564165711403, -0.03801458328962326, -0.061999913305044174, -0.13390806317329407, -0.016298681497573853, -0.9908597469329834, -0.01808476448059082, -0.031110377982258797, 0.0461728572845459, 0.008041989493017111, -0.06712277343926591, 0.9977106057533466,-0.0018736207476588594,-0.1482086181640625,-0.043914794921875,-0.9316558837890625
20230421-1511,2023-04-21 15:11:49,u10, 40,100,movements,wr-su, lt, d,957608.585263625, -0.13389503969514827, 0.017254341867170057, -0.0032317495162634004, 0.004786902107298374, -0.027068987488746643, -0.04973049461841583, -0.13347545266151428, -0.017253486439585686, -0.9909019470214844, -0.020485758781433105, -0.022175226360559464, 0.024501800537109375, 0.008499632226579052, -0.0669088488886783, 0.9977205600588953,-0.002189322456203368,-0.15386962890625,-0.0458526611328125,-0.956939697265625
20230421-1511,2023-04-21 15:11:49,u10, 41,100,movements,wr-su, lt, d,957608.5952856251, -0.13267102981850953, 0.018615763660911517, -0.0037030019896989266, 0.038999468088150024, -0.01784592866897583, -0.04628649353981018, -0.13225924968719482, -0.018614688888192177, -0.9910403490066528, -0.015201732516288757, 0.005003847181797028, 0.008206486701965332, 0.009164534658513844, -0.06630108085501146, 0.9977546022893612,-0.0024643279074258546,-0.1518096923828125,-0.027862548828125,-0.973052978515625
20230421-1511,2023-04-21 15:11:49,u10, 42,100,movements,wr-su, lt, d,957608.605307625, -0.13123653854541445, 0.019870736556954635, -0.0041260959842887345, 0.03963238745927811, -0.021953854709863663, -0.044663455337285995, -0.13083431124687195, -0.019869428128004074, -0.991205096244812, -0.0019476860761642456, 0.024569137021899223, -0.009313642978668213, 0.00977853209523316, -0.06558826497634972, 0.9977952065468082,-0.0027099667306941834,-0.14044189453125,-0.0018310546875,-0.9924468994140625
20230421-1511,2023-04-21 15:11:49,u10, 43,100,movements,wr-su, lt, d,957608.6153296251, -0.13029069047202915, 0.020620764395167513, -0.004560368001515832, 0.03075234219431877, -0.0385512076318264, -0.043401382863521576, -0.12989474833011627, -0.020619302988052368, -0.9913133978843689, 0.007595539093017578, 0.013447670266032219, -0.020878374576568604, 0.010139871842735498, -0.06511910270134477, 0.9978216862260556,-0.002946408889901307,-0.1267547607421875,0.0030517578125,-1.005859375
20230421-1511,2023-04-21 15:11:49,u10, 44,100,movements,wr-su, lt, d,957608.625351625, -0.13007609727281147, 0.021075876907235527, -0.004931286134850311, 0.007010546512901783, -0.05101240426301956, -0.029804961755871773, -0.129680797457695, -0.021074317395687103, -0.9913318157196045, 0.008373379707336426, -0.006025293841958046, -0.03387570381164551, 0.010355193744140656, -0.06501432836197381, 0.9978256424201031,-0.0031451601558167125,-0.1208953857421875,-0.019500732421875,-1.0206756591796875
20230421-1511,2023-04-21 15:11:49,u10, 45,100,movements,wr-su, lt, d,957608.6353746251, -0.13055016009615267, 0.021760741481055286, -0.005150019887086075, -0.012149566784501076, -0.04900225251913071, -0.018086520954966545, -0.13014881312847137, -0.021759023889899254, -0.9912557005882263, 0.006354227662086487, -0.006408702582120895, -0.02015787363052368, 0.010688994624627041, -0.06525261590581634, 0.9978061265531224,-0.0032790676356059508,-0.12298583984375,-0.0294036865234375,-1.0201568603515625
20230421-1511,2023-04-21 15:11:49,u10, 46,100,movements,wr-su, lt, d,957608.645396625, -0.1316924784121704, 0.022414550106746606, -0.005311634480632924, -0.009042513556778431, -0.038641225546598434, -0.01179972942918539, -0.13127917051315308, -0.022412672638893127, -0.9910920262336731, 0.0031053274869918823, 0.0014623552560806274, 0.007052779197692871, 0.011007976153626964, -0.06582400122923432, 0.9977648002013265,-0.0033872979493969274,-0.1248779296875,-0.0251007080078125,-0.9993743896484375
20230421-1511,2023-04-21 15:11:49,u10, 47,100,movements,wr-su, lt, d,957608.6554186251, -0.13295291623234926, 0.023231648224961737, -0.005371380013797544, 0.014968812465667725, -0.029247187077999115, -0.0036898721009492874, -0.13252580165863037, -0.023229558020830154, -0.9909073114395142, -0.005505234003067017, 0.022771794348955154, 0.02543795108795166, 0.01141147353094901, -0.06645391183218682, 0.9977182965743724,-0.003451163970953221,-0.13238525390625,-0.0123443603515625,-0.97052001953125
20230421-1511,2023-04-21 15:11:49,u10, 48,100,movements,wr-su, lt, d,957608.665440625, -0.13398197657178715, 0.024039617103796963, -0.005357114104646041, 0.04589545726776123, 6.382865831255913e-05, -0.0055539244785904884, -0.13354288041591644, -0.024037301540374756, -0.9907515048980713, -0.011934444308280945, 0.047535836696624756, 0.02065873146057129, 0.011813223154322885, -0.06696793577473144, 0.9976791910762549,-0.0034769468069054312,-0.1419525146484375,0.014373779296875,-0.9654693603515625
20230421-1511,2023-04-21 15:11:49,u10, 49,100,movements,wr-su, lt, d,957608.6754626251, -0.13443301161829418, 0.024362778702528093, -0.005252448876444763, 0.09175349026918411, 0.028162576258182526, 0.005713110789656639, -0.13398869335651398, -0.02436036802828312, -0.990683376789093, -0.017698973417282104, 0.04235047847032547, 0.006110072135925293, 0.011977158937191871, -0.06719260156460814, 0.9976622706192788,-0.0034382471736035744,-0.149322509765625,0.023529052734375,-0.9759368896484375
20230421-1511,2023-04-21 15:11:49,u10, 50,100,movements,wr-su, lt, d,957608.685484625, -0.13395130808931816, 0.024491606746152493, -0.005019936783429207, 0.13228529691696167, 0.05260959267616272, 0.010416386649012566, -0.1335110366344452, -0.024489158764481544, -0.9907447099685669, -0.005160883069038391, 0.031691305339336395, -0.015770792961120605, 0.01205003558332725, -0.06695103016917803, 0.9976779681561551,-0.003323685101070937,-0.1478424072265625,0.0138092041015625,-0.9951171875
20230421-1511,2023-04-21 15:11:49,u10, 51,100,movements,wr-su, lt, d,957608.6955066251, -0.1329861629956345, 0.025389691930306664, -0.004843003622163847, 0.14919529855251312, 0.05644720792770386, -0.008009492419660091, -0.13255178928375244, -0.02538696490228176, -0.9908509254455566, 0.01693589985370636, 0.016094360500574112, -0.03142690658569336, 0.012505532553020872, -0.06646921213626542, 0.9977048619250832,-0.0032594256240963105,-0.126708984375,-0.0007171630859375,-1.0156097412109375
20230421-1511,2023-04-21 15:11:49,u10, 52,100,movements,wr-su, lt, d,957608.7055296251, -0.1320837908782933, 0.026930886385472783, -0.004772405383334811, 0.1618240773677826, 0.038014937192201614, -0.016429957002401352, -0.13165231049060822, -0.026927631348371506, -0.9909301400184631, 0.03919929265975952, 0.0033680610358715057, -0.03951108455657959, 0.013278184417689328, -0.06601978917449747, 0.99772458919879,-0.0032693905078508625,-0.1048126220703125,-0.0173797607421875,-1.0273284912109375
20230421-1511,2023-04-21 15:11:49,u10, 53,100,movements,wr-su, lt, d,957608.715551625, -0.13153009246147926, 0.028716564021030334, -0.004806648829585109, 0.19534555077552795, 0.0038788069505244493, -0.03919785097241402, -0.13109709322452545, -0.028712617233395576, -0.9909536242485046, 0.056893572211265564, 0.012675628066062927, -0.025190114974975586, 0.014168785278875343, -0.06574511937816188, 0.9977302381160885,-0.0033414370383788115,-0.08062744140625,-0.0239105224609375,-1.028594970703125
20230421-1511,2023-04-21 15:11:49,u10, 54,100,movements,wr-su, lt, d,957608.7255736251, -0.13148102688857197, 0.030543382758594657, -0.005063397727137761, 0.24141539633274078, -0.010402927175164223, -0.06782227754592896, -0.13104137778282166, -0.030538633465766907, -0.9909064173698425, 0.04777415096759796, 0.03967864811420441, -0.007949113845825195, 0.015071765194393676, -0.06572387595812754, 0.9977178051056107,-0.003529136236667969,-0.0735015869140625,-0.0023651123046875,-1.00360107421875
20230421-1511,2023-04-21 15:11:49,u10, 55,100,movements,wr-su, lt, d,957608.735595625, -0.1319232048824639, 0.031589210778172915, -0.005355268420693705, 0.2537490129470825, 0.024490609765052795, -0.05709240213036537, -0.13147525489330292, -0.03158395737409592, -0.9908161759376526, 0.015767812728881836, 0.03523080423474312, -0.016843736171722412, 0.015583074254319663, -0.0659475191879322, 0.9976945248579637,-0.0037125097401780128,-0.0986785888671875,0.0100555419921875,-1.0030670166015625
20230421-1511,2023-04-21 15:11:49,u10, 56,100,movements,wr-su, lt, d,957608.7456176251, -0.1323786559110228, 0.03098684405040181, -0.005397584167447037, 0.20239095389842987, 0.05683416500687599, -0.016962720081210136, -0.13192899525165558, -0.03098188526928425, -0.9907748699188232, -0.005522206425666809, 0.010016307234764099, -0.002755403518676758, 0.015280341539878376, -0.06617454859424031, 0.9976841527536949,-0.003717261734318129,-0.129364013671875,-0.0058746337890625,-1.00445556640625
20230421-1511,2023-04-21 15:11:49,u10, 57,100,movements,wr-su, lt, d,957608.755639625, -0.1329209060524896, 0.030132163040985406, -0.005183349186704583, 0.1585974097251892, 0.04822523146867752, -0.0009669763967394829, -0.13246968388557434, -0.03012760356068611, -0.9907290935516357, -0.0015330463647842407, -0.028176233172416687, 0.016897916793823242, 0.014860103574619865, -0.06644273529673135, 0.9976731505033164,-0.003586176952982314,-0.136749267578125,-0.0404205322265625,-0.9822540283203125
20230421-1511,2023-04-21 15:11:49,u10, 58,100,movements,wr-su, lt, d,957608.7656616251, -0.13264698323808627, 0.029821989744098144, -0.005031189207109675, 0.12149082869291306, 0.04796237871050835, -0.0058000278659164906, -0.13219952583312988, -0.029817570000886917, -0.9907745718955994, 0.0004703700542449951, -0.026044858619570732, 0.025213658809661865, 0.014710910188068497, -0.06630472252871221, 0.9976849091840687,-0.0034979663831669664,-0.1305694580078125,-0.0648956298828125,-0.9674835205078125
20230421-1511,2023-04-21 15:11:49,u10, 59,100,movements,wr-su, lt, d,957608.775684625, -0.13134884359615645, 0.03012566115718804, -0.004942443463437658, 0.12026790529489517, 0.06090107932686806, 0.0006605347152799368, -0.13091206550598145, -0.030121104791760445, -0.990936279296875, -0.009468823671340942, -0.0011899303644895554, 0.006546080112457275, 0.014867582531976632, -0.06565671533804256, 0.9977255677996347,-0.0034541031322086915,-0.135009765625,-0.042205810546875,-0.971649169921875
20230421-1511,2023-04-21 15:11:49,u10, 60,100,movements,wr-su, lt, d,957608.7857066251, -0.12905943857282565, 0.0311454306153422, -0.004726652827571734, 0.15545059740543365, 0.08416325598955154, 0.019926507025957108, -0.12863904237747192, -0.031140396371483803, -0.9912024140357971, -0.012474268674850464, 0.012600965797901154, -0.02317136526107788, 0.015387251643257396, -0.0645136703169743, 0.9977925210771613,-0.0033622816983228223,-0.142669677734375,-0.0241546630859375,-1.0001373291015625
20230421-1511,2023-04-21 15:11:49,u10, 61,100,movements,wr-su, lt, d,957608.795728625, -0.12602199579977147, 0.032171402746511514, -0.004321582424406344, 0.1897539645433426, 0.10294467210769653, 0.02968592941761017, -0.1256236582994461, -0.032165855169296265, -0.9915564060211182, -0.0033284127712249756, 0.017929401248693466, -0.022176504135131836, 0.01591700379911955, -0.0629957065176095, 0.9978817855341385,-0.0031690820731015905,-0.1362762451171875,-0.0157470703125,-1.0191802978515625
20230421-1511,2023-04-21 15:11:49,u10, 62,100,movements,wr-su, lt, d,957608.8057506251, -0.12346493823274611, 0.03259259353917185, -0.0038017535154058874, 0.23415081202983856, 0.09945912659168243, 0.03060104325413704, -0.12308609485626221, -0.032586824148893356, -0.9918608069419861, 0.01351270079612732, 0.010370023548603058, -0.01901865005493164, 0.016147249117988365, -0.06171587782086737, 0.9979589640552384,-0.0029023280512228775,-0.12017822265625,-0.0155487060546875,-1.0095062255859375
20230421-1511,2023-04-21 15:11:49,u10, 63,100,movements,wr-su, lt, d,957608.815772625, -0.12224672610111728, 0.03368268535653515, -0.0032406910485824883, 0.2731573283672333, 0.09342946112155914, 0.028655869886279106, -0.12187330424785614, -0.03367631509900093, -0.9919741749763489, 0.023209944367408752, -0.004791092127561569, -0.012435615062713623, 0.016710110127224988, -0.061103802818503014, 0.9979880396955156,-0.0026457981318954247,-0.1012725830078125,-0.0301361083984375,-1.009857177734375
20230421-1511,2023-04-21 15:11:49,u10, 64,100,movements,wr-su, lt, d,957608.8257946251, -0.12169027676246776, 0.03610614950953019, -0.002494252016274693, 0.304068922996521, 0.10746672004461288, 0.0515172965824604, -0.12131103873252869, -0.03609830513596535, -0.99195796251297, 0.009815029799938202, -0.04669588804244995, 0.006148636341094971, 0.017942852653985146, -0.060820118732528045, 0.9979846992176358,-0.0023423187994497437,-0.10247802734375,-0.0595245361328125,-0.9945220947265625
20230421-1511,2023-04-21 15:11:49,u10, 65,100,movements,wr-su, lt, d,957608.835816625, -0.1207646265577464, 0.03954280929905073, -0.0015036591254281105, 0.3022153675556183, 0.14637070894241333, 0.07350967824459076, -0.12037712335586548, -0.039532504975795746, -0.9919407963752747, -0.006514996290206909, -0.053012050688266754, 0.004437744617462158, 0.01968872026681509, -0.06034865342578768, 0.9979812574624748,-0.0019433524471772802,-0.1205291748046875,-0.0955657958984375,-0.9820404052734375
20230421-1511,2023-04-21 15:11:49,u10, 66,100,movements,wr-su, lt, d,957608.8458396251, -0.11953951222962239, 0.04273041322492084, -0.0002638417200233908, 0.2835322916507721, 0.16971224546432495, 0.10036033391952515, -0.11914616078138351, -0.04271741211414337, -0.9919573664665222, -0.0008795037865638733, -0.021583128720521927, -0.005402863025665283, 0.02131755323825584, -0.05972335263063139, 0.9979863648224383,-0.0014077909671296406,-0.1259307861328125,-0.0786285400390625,-0.9918975830078125
20230421-1511,2023-04-21 15:11:49,u10, 67,100,movements,wr-su, lt, d,957608.855861625, -0.11838418168023665, 0.04497968733794978, 0.001132337020020993, 0.2526169717311859, 0.16701766848564148, 0.11030591279268265, -0.11798840016126633, -0.04496452212333679, -0.9919964075088501, 0.021552816033363342, -1.839175820350647e-05, -0.009117424488067627, 0.02248204514543655, -0.05912985313344978, 0.9979967970740671,-0.0007652973159439987,-0.1094207763671875,-0.0538330078125,-1.000335693359375
20230421-1511,2023-04-21 15:11:49,u10, 68,100,movements,wr-su, lt, d,957608.8658836251, -0.11736121239524365, 0.046717305794011135, 0.0025480604478394296, 0.2542722225189209, 0.13638705015182495, 0.10958550125360489, -0.11696422845125198, -0.046700313687324524, -0.9920375347137451, 0.048742152750492096, 0.011101555079221725, -0.016049623489379883, 0.02339100535148469, -0.058601181587569606, 0.9980074127401795,-9.829760871052088e-05,-0.0824127197265625,-0.038604736328125,-1.0044097900390625
20230421-1511,2023-04-21 15:11:49,u10, 69,100,movements,wr-su, lt, d,957608.875905625, -0.11641775280473002, 0.0482985772878525, 0.0038335945193874324, 0.24271969497203827, 0.10758815705776215, 0.09074070304632187, -0.11601950973272324, -0.04827979952096939, -0.9920728206634521, 0.05533526837825775, 0.010727919638156891, -0.019096553325653076, 0.024217478215226077, -0.05811273141437776, 0.9980161693054703,0.0005082217168983565,-0.059722900390625,-0.034698486328125,-1.0111236572265625
20230421-1511,2023-04-21 15:11:49,u10, 70,100,movements,wr-su, lt, d,957608.885927625, -0.11532970330548314, 0.04994180337022376, 0.005131127029034919, 0.258801132440567, 0.09152902662754059, 0.11431873589754105, -0.11493072658777237, -0.04992104694247246, -0.9921183586120605, 0.03251797705888748, -0.02918051928281784, -0.023323535919189453, 0.025074536473913927, -0.05755078700541017, 0.9980270729096379,0.0011215067858960151,-0.070037841796875,-0.050537109375,-1.0100250244140625
20230421-1511,2023-04-21 15:11:49,u10, 71,100,movements,wr-su, lt, d,957608.8959496251, -0.11403132358070732, 0.052520058727931855, 0.006599830867837009, 0.34060677886009216, 0.121357761323452, 0.11653901636600494, -0.11362746357917786, -0.052495915442705154, -0.9921355843544006, 0.0014448165893554688, -0.059045832604169846, -0.035940587520599365, 0.02640218298665799, -0.056878315910511984, 0.9980302992283974,0.0017971695664852755,-0.095855712890625,-0.104400634765625,-1.0208587646484375
20230421-1511,2023-04-21 15:11:49,u10, 72,100,movements,wr-su, lt, d,957608.905971625, -0.11272479691468089, 0.056183969054211656, 0.00832300898129319, 0.4329661428928375, 0.15237799286842346, 0.14601153135299683, -0.11230872571468353, -0.056154415011405945, -0.9920853972434998, -0.027248188853263855, -0.033231575042009354, -0.032557547092437744, 0.028277781115012453, -0.056193147604680846, 0.9980160202085576,0.0025709732957321665,-0.12713623046875,-0.1015167236328125,-1.030242919921875
20230421-1511,2023-04-21 15:11:49,u10, 73,100,movements,wr-su, lt, d,957608.9159946251, -0.1110366965307242, 0.06098467913414836, 0.010527229196833403, 0.5767611265182495, 0.22273126244544983, 0.1788829267024994, -0.11060267686843872, -0.060946885496377945, -0.9919942021369934, -0.04172583669424057, -0.019421152770519257, -0.025614380836486816, 0.030732158340872638, -0.055303040542378216, 0.9979902185477281,0.0035613082083629836,-0.1468963623046875,-0.0839996337890625,-1.019317626953125
20230421-1511,2023-04-21 15:11:49,u10, 74,100,movements,wr-su, lt, d,957608.926016625, -0.10853275803710852, 0.06726763797306283, 0.013063924108498628, 0.7110854387283325, 0.30513638257980347, 0.18530358374118805, -0.10807482898235321, -0.0672169178724289, -0.9918677806854248, -0.05328689515590668, 0.030641600489616394, -0.018874406814575195, 0.03393134921315315, -0.05398858767082169, 0.9979538341287189,0.004694704420275388,-0.1583251953125,-0.065093994140625,-1.0115509033203125
20230421-1511,2023-04-21 15:11:49,u10, 75,100,movements,wr-su, lt, d,957608.9360386251, -0.10547426487394825, 0.07432523473948183, 0.01578240043897089, 0.7366581559181213, 0.3389604091644287, 0.20391935110092163, -0.10498815029859543, -0.07425682246685028, -0.9916972517967224, -0.040840134024620056, 0.09084312617778778, -0.03489881753921509, 0.0375169299219133, -0.05238187636533734, 0.9979045916674977,0.005916276950986907,-0.1581573486328125,-0.0066680908203125,-1.0158538818359375
20230421-1511,2023-04-21 15:11:49,u10, 76,100,movements,wr-su, lt, d,957608.946060625, -0.10228561850443539, 0.08158261371712727, 0.018625831110228256, 0.7628414630889893, 0.342489629983902, 0.20332762598991394, -0.10176774114370346, -0.08149214833974838, -0.9914647340774536, -0.006935901939868927, 0.10392256826162338, -0.07146245241165161, 0.04120058621853351, -0.05069649789201924, 0.9978378982677568,0.0072082635418956615,-0.1285247802734375,0.023406982421875,-1.0402069091796875
20230421-1511,2023-04-21 15:11:49,u10, 77,100,movements,wr-su, lt, d,957608.9560826251, -0.09929219045052705, 0.08942742910390937, 0.02151208969758042, 0.860819935798645, 0.28339993953704834, 0.19276659190654755, -0.09873300045728683, -0.08930828422307968, -0.9910982847213745, 0.043938666582107544, 0.11920025944709778, -0.12116056680679321, 0.04517439372113008, -0.04909305578079494, 0.9977357426399394,0.008513766096217913,-0.0880126953125,0.02606201171875,-1.0868988037109375
20230421-1511,2023-04-21 15:11:49,u10, 78,100,movements,wr-su, lt, d,957608.966104625, -0.09700041793664695, 0.09796140740841706, 0.024068420463615185, 0.8752932548522949, 0.2287859469652176, 0.1499684453010559, -0.09638404846191406, -0.09780479967594147, -0.9905272722244263, 0.08840367197990417, 0.09954430162906647, -0.11143189668655396, 0.04948272779583134, -0.047831047188454844, 0.997582470630114,0.0096318318877854,-0.0192718505859375,0.0244903564453125,-1.1119537353515625
20230421-1511,2023-04-21 15:11:49,u10, 79,100,movements,wr-su, lt, d,957608.9761266251, -0.09517254453849226, 0.10626941862618661, 0.026412881851088404, 0.8355239629745483, 0.17525002360343933, 0.1788317859172821, -0.0944928452372551, -0.10606951266527176, -0.9898587465286255, 0.0764416754245758, 0.051519349217414856, -0.055505573749542236, 0.05367226808878035, -0.046796463892800635, 0.9974046220637266,0.010646371816081713,-0.0156097412109375,-0.034820556640625,-1.0751495361328125
20230421-1511,2023-04-21 15:11:49,u10, 80,100,movements,wr-su, lt, d,957608.986148625, -0.0943322457776832, 0.11439365749776416, 0.02913834686493026, 0.8199954032897949, 0.05388684570789337, 0.18388612568378448, -0.09357678145170212, -0.11414433270692825, -0.9890472292900085, 0.10441048443317413, 0.020119667053222656, -0.026531994342803955, 0.05778178605472891, -0.046234642170263296, 0.9971877648830599,0.011833662643475849,-0.0049285888671875,-0.0704498291015625,-1.03082275390625
20230421-1511,2023-04-21 15:11:49,u10, 81,100,movements,wr-su, lt, d,957608.9961716251, -0.09442696089153879, 0.12253137990278525, 0.031552098934154296, 0.8501767516136169, -0.0021865423768758774, 0.14186197519302368, -0.09357977658510208, -0.12222499400377274, -0.9880809187889099, 0.0717901960015297, 0.015077784657478333, -0.003419935703277588, 0.061894670262440526, -0.04613672403644649, 0.9969330841706358,0.012838927984468064,0.00396728515625,-0.105316162109375,-0.993988037109375
20230421-1511,2023-04-21 15:11:49,u10, 82,100,movements,wr-su, lt, d,957609.006193625, -0.09477387412296423, 0.13129459803793872, 0.033961103841939205, 0.92824387550354, 0.002600755775347352, 0.19065973162651062, -0.0938175842165947, -0.1309177130460739, -0.9869441986083984, 0.04045756906270981, 0.051282092928886414, -0.009897232055664062, 0.06631965374505806, -0.04614773238899521, 0.9966349465937717,0.013817162401808296,-0.0432891845703125,-0.1001434326171875,-0.996551513671875
20230421-1511,2023-04-21 15:11:49,u10, 83,100,movements,wr-su, lt, d,957609.0162156251, -0.09551433573664542, 0.14064826663550806, 0.037223945281336775, 0.9654183983802795, -0.058981381356716156, 0.23946909606456757, -0.0944274365901947, -0.14018501341342926, -0.9856123328208923, 0.05588369816541672, 0.07789862155914307, -0.019239962100982666, 0.0710601825394291, -0.0463065450053329, 0.9962807951117475,0.01518987274993969,-0.05157470703125,-0.05194091796875,-1.0048065185546875
20230421-1511,2023-04-21 15:11:49,u10, 84,100,movements,wr-su, lt, d,957609.026237625, -0.09692289816500968, 0.14970239284467857, 0.040591188306261475, 0.9260810017585754, -0.11864285171031952, 0.2773111164569855, -0.09568887948989868, -0.14914385974407196, -0.9841746687889099, 0.041214972734451294, -0.0026353150606155396, -0.06086927652359009, 0.07565849497695598, -0.046781049275434854, 0.9958975620376939,0.016591770617818736,-0.040618896484375,-0.11083984375,-1.0250396728515625
20230421-1511,2023-04-21 15:11:49,u10, 85,100,movements,wr-su, lt, d,957609.0362596251, -0.09926441273197376, 0.15837401179153385, 0.044385158890806624, 0.8066462278366089, -0.1863100379705429, 0.30068355798721313, -0.09786122292280197, -0.15771277248859406, -0.9826239943504333, 0.07518663257360458, -0.013078853487968445, -0.07487112283706665, 0.08008487801192951, -0.047690963001734324, 0.9954807451272437,0.0181704370216104,-0.0402069091796875,-0.1799774169921875,-1.0756683349609375
20230421-1511,2023-04-21 15:11:49,u10, 86,100,movements,wr-su, lt, d,957609.046281625, -0.10200387346392013, 0.1648851586869687, 0.04812974257345651, 0.5600561499595642, -0.24215999245643616, 0.27164170145988464, -0.10044601559638977, -0.1641390472650528, -0.9813098311424255, 0.09373211860656738, 0.07382228970527649, 0.04408448934555054, 0.08344086333963503, -0.04881300984396776, 0.9951204936991148,0.01975270445440078,-0.0087738037109375,-0.1085357666015625,-1.028228759765625
20230421-1511,2023-04-21 15:11:49,u10, 87,100,movements,wr-su, lt, d,957609.0563036251, -0.10495473957800394, 0.1686336247470278, 0.050713698168272654, 0.25236275792121887, -0.2649518549442291, 0.1739388406276703, -0.10327611118555069, -0.1678355187177658, -0.9803903698921204, 0.023320019245147705, -0.001353934407234192, 0.13688457012176514, 0.08539915247086799, -0.05011783266344415, 0.9948678499012481,0.020813245232187725,-0.0341339111328125,-0.1455535888671875,-0.8763427734375
20230421-1511,2023-04-21 15:11:49,u10, 88,100,movements,wr-su, lt, d,957609.0663266251, -0.10791672416811138, 0.17057634106727954, 0.052767694739171415, 0.19982609152793884, -0.24182656407356262, 0.19459956884384155, -0.10614423453807831, -0.16975034773349762, -0.9797541499137878, -0.033611051738262177, 0.09215940535068512, 0.20898693799972534, 0.08644882629569783, -0.051473472925627047, 0.9946900282770403,0.021654037555941683,-0.1165771484375,-0.1224365234375,-0.80059814453125
20230421-1511,2023-04-21 15:11:49,u10, 89,100,movements,wr-su, lt, d,957609.076348625, -0.10997943689398777, 0.17204381755325782, 0.0552729172580338, 0.1396343857049942, -0.08265768736600876, 0.24759593605995178, -0.10813749581575394, -0.1711963564157486, -0.9792844653129578, -0.07112278789281845, 0.030403494834899902, 0.16602152585983276, 0.08726638202028922, -0.05236735339264323, 0.9945470076206855,0.02276884638705425,-0.161163330078125,-0.075408935546875,-0.792449951171875
20230421-1511,2023-04-21 15:11:49,u10, 90,100,movements,wr-su, lt, d,957609.0863706251, -0.11108977418830197, 0.17224262319246433, 0.05805044012483125, -0.02017589658498764, -0.06815756857395172, 0.31870201230049133, -0.10922098904848099, -0.17139221727848053, -0.9791299700737, -0.0947432741522789, -0.19530698657035828, 0.10670870542526245, 0.0874512474862176, -0.05279488379916471, 0.9944768636797476,0.0240957781831444,-0.1990814208984375,-0.271087646484375,-0.839569091796875
20230421-1511,2023-04-21 15:11:49,u10, 91,100,movements,wr-su, lt, d,957609.096392625, -0.11266795024320217, 0.17147129972188666, 0.061562173036257654, -0.05551524832844734, -0.11169040203094482, 0.36315497756004333, -0.11078092455863953, -0.1706322580575943, -0.9790874123573303, -0.011716663837432861, -0.1829138845205307, 0.0800701379776001, 0.08718078208017345, -0.05343959509466234, 0.9944235982357562,0.02579546121755364,-0.168212890625,-0.383148193359375,-0.8995513916015625
20230421-1511,2023-04-21 15:11:49,u10, 92,100,movements,wr-su, lt, d,957609.1064146251, -0.11426030630493628, 0.16994200155575484, 0.06520752710396861, -0.16862685978412628, -0.08509127795696259, 0.3972853422164917, -0.11236946284770966, -0.16912518441677094, -0.9791678786277771, -0.016460515558719635, -0.10261857509613037, 0.07795333862304688, 0.08653989305445792, -0.05410079947848886, 0.9943958602704184,0.027584032330760178,-0.112579345703125,-0.310272216796875,-0.891754150390625
20230421-1511,2023-04-21 15:11:49,u10, 93,100,movements,wr-su, lt, d,957609.116436625, -0.11553811922821487, 0.16679099594095328, 0.06908299765411, -0.4029914438724518, -0.03968065604567528, 0.42426982522010803, -0.11368143558502197, -0.16601873934268951, -0.9795480370521545, -0.02882044017314911, -0.08373712003231049, 0.04955536127090454, 0.08509730161215454, -0.05463006000860832, 0.9944348533376579,0.029550648603423452,-0.141815185546875,-0.25836181640625,-0.9183807373046875
20230421-1511,2023-04-21 15:11:49,u10, 94,100,movements,wr-su, lt, d,957609.1264586251, -0.11651773740245587, 0.1607922584981222, 0.07294444046294579, -0.6840352416038513, -0.02182282693684101, 0.4726170301437378, -0.11475467681884766, -0.1601002961397171, -0.98040771484375, -0.02030090242624283, -0.004023239016532898, 0.0724029541015625, 0.08223628429431029, -0.055075801419117144, 0.9945875898042793,0.031611703819140725,-0.1424102783203125,-0.208709716796875,-0.916656494140625
20230421-1511,2023-04-21 15:11:49,u10, 95,100,movements,wr-su, lt, d,957609.1364816667, -0.11690693410421597, 0.15125054332976623, 0.07640536252467878, -1.1649309396743774, 0.05473559349775314, 0.4120540916919708, -0.11530917882919312, -0.15067452192306519, -0.9818355441093445, 0.012922674417495728, -0.023901283740997314, 0.05338400602340698, 0.07759402555674542, -0.05533000039649308, 0.9948809811870445,0.0336085681925897,-0.1134033203125,-0.1617431640625,-0.927459716796875
20230421-1511,2023-04-21 15:11:49,u10, 96,100,movements,wr-su, lt, d,957609.1465036668, -0.11659236160563131, 0.13669708344958822, 0.07866288430136671, -1.6304821968078613, 0.0536373071372509, 0.38014084100723267, -0.11524321883916855, -0.13627175986766815, -0.9839456081390381, -0.02493930608034134, -0.028034865856170654, 0.14774876832962036, 0.07041223348391204, -0.055401280167514166, 0.9953565053777056,0.03518682842431375,-0.118621826171875,-0.1680908203125,-0.87945556640625
20230421-1511,2023-04-21 15:11:49,u10, 97,100,movements,wr-su, lt, d,957609.1565256667, -0.11653825443343824, 0.11966052166729553, 0.08050038974625935, -1.628882646560669, 0.012159107252955437, 0.38193926215171814, -0.11544319242238998, -0.11937516182661057, -0.9861147999763489, -0.0071459561586380005, -0.021204061806201935, 0.08505278825759888, 0.06198393839801317, -0.05568286812230258, 0.9958495260463971,0.03661977294788105,-0.1395263671875,-0.1639404296875,-0.8497772216796875
20230421-1511,2023-04-21 15:11:49,u10, 98,100,movements,wr-su, lt, d,957609.1665476668, -0.11605657504157312, 0.10367605141008476, 0.08285052241278176, -1.5074505805969238, 0.13287833333015442, 0.4692403972148895, -0.11517444998025894, -0.1034904196858406, -0.9879395365715027, 0.024933934211730957, 0.03665692359209061, -0.015417337417602539, 0.054081795953552225, -0.055725916494507144, 0.9962449580575603,0.0382857117383525,-0.1048736572265625,-0.09967041015625,-0.96990966796875
20230421-1511,2023-04-21 15:11:49,u10, 99,100,movements,wr-su, lt, d,957609.1765696667, -0.11486571272753385, 0.08848085036957559, 0.0855880714848316, -1.5069379806518555, 0.14757604897022247, 0.3816804587841034, -0.11416493356227875, -0.08836544305086136, -0.9895240664482117, 0.04228075593709946, -0.10104189068078995, 0.010993242263793945, 0.04656593411502004, -0.05540371307211822, 0.9965697924977371,0.040132344099373086,-0.0767669677734375,-0.093994140625,-0.973175048828125
20230421-1511,2023-04-21 15:11:49,u10, 100,100,movements,wr-su, lt, d,957609.1865916668, -0.11379264753111702, 0.0726652850880639, 0.08720176742515062, -1.565108060836792, 0.08667755126953125, 0.32470080256462097, -0.1132475808262825, -0.07260135561227798, -0.9909107089042664, 0.029049552977085114, -0.1464690864086151, -0.031122982501983643, 0.038708375101266526, -0.05519337183812612, 0.9968647800421203,0.04142415966462201,-0.080657958984375,-0.2418670654296875,-1.0072784423828125
20230421-1511,2023-04-21 15:11:50,u10, 101,100,movements,wr-su, lt, d,957609.1966136667, -0.11319632661020806, 0.056463205053438284, 0.08847700863032334, -1.6339315176010132, 0.06605110317468643, 0.2745782434940338, -0.11277473717927933, -0.05643320828676224, -0.9920167326927185, 0.05128178000450134, -0.07732533663511276, -0.004900991916656494, 0.03065575005085115, -0.05524373822387944, 0.9970950635820348,0.04254044051797606,-0.068878173828125,-0.1726837158203125,-1.020050048828125
20230421-1511,2023-04-21 15:11:50,u10, 102,100,movements,wr-su, lt, d,957609.2066356668, -0.11226074071402434, 0.03891620095815485, 0.08913477945709337, -1.8481781482696533, 0.13668584823608398, 0.26998502016067505, -0.11194027960300446, -0.03890638053417206, -0.9929530024528503, -0.014982365071773529, -0.11757250130176544, 0.028109252452850342, 0.02190591195820165, -0.05516909823753276, 0.9972934669589542,0.04338358905638397,-0.0862579345703125,-0.1220245361328125,-0.9712371826171875
20230421-1511,2023-04-21 15:11:50,u10, 103,100,movements,wr-su, lt, d,957609.2166586667, -0.11058101802368349, 0.018436940233693997, 0.08989648921355106, -2.206434726715088, 0.19346657395362854, 0.32835617661476135, -0.110337033867836, -0.018435895442962646, -0.9937232136726379, -0.06179739534854889, -0.28915077447891235, -0.006703972816467285, 0.011677958986749086, -0.05479060307364648, 0.9974439720329814,0.044353626227247554,-0.158660888671875,-0.22979736328125,-0.9787139892578125
20230421-1511,2023-04-21 15:11:50,u10, 104,100,movements,wr-su, lt, d,957609.2266806667, -0.10890274569796364, -0.005376013698653656, 0.09069554202446588, -2.4875235557556152, 0.13421843945980072, 0.3530432879924774, -0.10868604481220245, 0.005375987850129604, -0.9940615892410278, -0.06518789380788803, -0.3864032030105591, 0.009610295295715332, -0.00021408696519043343, -0.054489993016891905, 0.9974811850785852,0.0454110203485437,-0.1758880615234375,-0.3640899658203125,-1.0001678466796875
20230421-1511,2023-04-21 15:11:50,u10, 105,100,movements,wr-su, lt, d,957609.2367026667, -0.10784597887335094, -0.031010232584630593, 0.09158699849214647, -2.5535240173339844, 0.08553238958120346, 0.3753589689731598, -0.10758529603481293, 0.031005263328552246, -0.9937122464179993, -0.047184623777866364, -0.30798280239105225, 0.011305689811706543, -0.012998762048584488, -0.05454261129567915, 0.9973415646197424,0.046540230277175174,-0.16583251953125,-0.3436279296875,-0.9757080078125
20230421-1511,2023-04-21 15:11:50,u10, 106,100,movements,wr-su, lt, d,957609.2467246667, -0.10664977444187346, -0.05650024582908195, 0.09250459766038167, -2.4726345539093018, 0.14602209627628326, 0.3548484742641449, -0.10627785325050354, 0.05647018924355507, -0.9927316308021545, -0.05673182010650635, -0.21014145016670227, -0.028890013694763184, -0.025712683105880034, -0.054525512872019705, 0.9970429759691829,0.047655578448269245,-0.1516265869140625,-0.2091217041015625,-1.0055999755859375
20230421-1511,2023-04-21 15:11:50,u10, 107,100,movements,wr-su, lt, d,957609.2567466667, -0.10495900121741927, -0.08045888888405327, 0.09367498435361932, -2.239821672439575, 0.16905178129673004, 0.39263126254081726, -0.10442747175693512, 0.08037211000919342, -0.9912796020507812, -0.09202947467565536, -0.13551737368106842, -0.01558685302734375, -0.03766518374980998, -0.054235951843091386, 0.9966222080366764,0.04882545057201909,-0.1834716796875,-0.1084442138671875,-1.01470947265625
20230421-1511,2023-04-21 15:11:50,u10, 108,100,movements,wr-su, lt, d,957609.2667686667, -0.10285202251728892, -0.10157079657693516, 0.09565396590739553, -1.9095171689987183, 0.22630815207958221, 0.42954301834106445, -0.10214162617921829, 0.10139624029397964, -0.989588737487793, -0.0841377004981041, -0.05986182391643524, -0.06718921661376953, -0.048184126311510665, -0.053702102125947684, 0.9961251419653846,0.050290421021693656,-0.195220947265625,0.0001373291015625,-1.015228271484375
20230421-1511,2023-04-21 15:11:50,u10, 109,100,movements,wr-su, lt, d,957609.2767906667, -0.09994922691979333, -0.11962448670405933, 0.09777268049283498, -1.6476144790649414, 0.30681338906288147, 0.34397244453430176, -0.09906980395317078, 0.11933938413858414, -0.9878984093666077, -0.09819585829973221, -0.09138528257608414, -0.11630386114120483, -0.05719390727773092, -0.05272235775270611, 0.9956286021450361,0.05170108411654047,-0.1829376220703125,0.0443878173828125,-1.1021575927734375
20230421-1511,2023-04-21 15:11:50,u10, 110,100,movements,wr-su, lt, d,957609.2868136667, -0.09650477158296801, -0.1345903474322543, 0.09949929328233513, -1.2872086763381958, 0.3250184655189514, 0.30449190735816956, -0.09548364579677582, 0.13418437540531158, -0.9863454699516296, -0.12503638863563538, -0.06628276407718658, -0.13586211204528809, -0.0646898344941725, -0.05140505849911794, 0.9951809388783996,0.05279824742670934,-0.21783447265625,0.0330810546875,-1.1049346923828125
20230421-1511,2023-04-21 15:11:50,u10, 111,100,movements,wr-su, lt, d,957609.2968356668, -0.0928228276006256, -0.1453052639574127, 0.10209706378669953, -0.7664483785629272, 0.36167263984680176, 0.4219234585762024, -0.09171280264854431, 0.14479447901248932, -0.9852021932601929, -0.08431262522935867, 0.02770613133907318, -0.18955671787261963, -0.07005500047262721, -0.049912035055356546, 0.9948182694811913,0.054200302380341854,-0.2010650634765625,0.1220245361328125,-1.147247314453125
20230421-1511,2023-04-21 15:11:50,u10, 112,100,movements,wr-su, lt, d,957609.3068576667, -0.08819478045748484, -0.15098123239530767, 0.10584376148180442, -0.3679989278316498, 0.48192980885505676, 0.40758252143859863, -0.08707848191261292, 0.15040826797485352, -0.9847815632820129, -0.07052958011627197, 0.03045414388179779, -0.20606011152267456, -0.07291490463935374, -0.047881579893756035, 0.9946119610083793,0.05601529880666525,-0.1544952392578125,0.18896484375,-1.2100830078125
20230421-1511,2023-04-21 15:11:50,u10, 113,100,movements,wr-su, lt, d,957609.3168796668, -0.08212096419885803, -0.15370978335470487, 0.109569307277414, -0.15616576373577118, 0.599021852016449, 0.37640276551246643, -0.08106156438589096, 0.153105229139328, -0.9848796129226685, -0.12889941036701202, -0.013487309217453003, -0.13922011852264404, -0.07435835088984928, -0.04506704571428829, 0.9945405723578123,0.05769657670479029,-0.183746337890625,0.171051025390625,-1.1533660888671875
20230421-1511,2023-04-21 15:11:50,u10, 114,100,movements,wr-su, lt, d,957609.3269016667, -0.07512675543382598, -0.15430891338227404, 0.11336361404947179, 0.05784003809094429, 0.6747682690620422, 0.4055372178554535, -0.07416428625583649, 0.15369726717472076, -0.9853308200836182, -0.1603633314371109, -0.07168126106262207, -0.11157774925231934, -0.0747786702816315, -0.04174618709134262, 0.9945576882029774,0.05933306001303405,-0.228363037109375,0.0946502685546875,-1.0987091064453125
20230421-1511,2023-04-21 15:11:50,u10, 115,100,movements,wr-su, lt, d,957609.3369236668, -0.06714850986776345, -0.15242011977462847, 0.11813780512793115, 0.3693683445453644, 0.7808986902236938, 0.5107336640357971, -0.06632015854120255, 0.15183064341545105, -0.9861790537834167, -0.13738471269607544, 0.00727275013923645, -0.12600356340408325, -0.07398477501452522, -0.037904280304584564, 0.99464658576187,0.06138131601022308,-0.2238311767578125,0.1122283935546875,-1.1110687255859375
20230421-1511,2023-04-21 15:11:50,u10, 116,100,movements,wr-su, lt, d,957609.3469456667, -0.05789640245509249, -0.14643118841251399, 0.12428345804157463, 0.9059087038040161, 0.8756632804870605, 0.6201417446136475, -0.05724480748176575, 0.1459084451198578, -0.9876405000686646, -0.12093210220336914, 0.06678380072116852, -0.12768542766571045, -0.07118575035282548, -0.033351748549602385, 0.9948474129976522,0.06402260235007742,-0.191558837890625,0.1954803466796875,-1.11004638671875
20230421-1511,2023-04-21 15:11:50,u10, 117,100,movements,wr-su, lt, d,957609.3569686668, -0.04784192060726993, -0.13458976892652666, 0.13139448218615843, 1.5312503576278687, 0.9243402481079102, 0.6492607593536377, -0.04739117622375488, 0.13418379426002502, -0.9898226261138916, -0.08995321393013, 0.16708572208881378, -0.0782010555267334, -0.06551313777245522, -0.02822637084524717, 0.9951936955263058,0.06708757967947804,-0.1573486328125,0.24273681640625,-1.105926513671875
20230421-1511,2023-04-21 15:11:50,u10, 118,100,movements,wr-su, lt, d,957609.3669906667, -0.03757911047628786, -0.11615714930207349, 0.13848511376984926, 2.190836191177368, 0.9471622109413147, 0.5812451243400574, -0.03731709346175194, 0.11589612066745758, -0.992560088634491, -0.07546065747737885, 0.2733708620071411, 0.03604763746261597, -0.05659888241760452, -0.022727152392139453, 0.9956703918614145,0.07014637094825568,-0.1214752197265625,0.3643798828125,-1.0140838623046875
20230421-1511,2023-04-21 15:11:50,u10, 119,100,movements,wr-su, lt, d,957609.3770126668, -0.02717151425902916, -0.09310226061048114, 0.14431927699626046, 2.3565497398376465, 1.0071454048156738, 0.44037294387817383, -0.027050508186221123, 0.09296781569719315, -0.9953016042709351, -0.11056854575872421, 0.24728792905807495, 0.14216744899749756, -0.04543053568881369, -0.016889983470777185, 0.9961795863529671,0.07264282357536388,-0.12005615234375,0.3697662353515625,-0.888885498046875
20230421-1511,2023-04-21 15:11:50,u10, 120,100,movements,wr-su, lt, d,957609.3870346667, -0.01639794818620369, -0.07049538426578777, 0.14945431723823907, 2.130293130874634, 1.0611279010772705, 0.5018537044525146, -0.016356486827135086, 0.0704370066523552, -0.9973821043968201, -0.1164255291223526, 0.1940435767173767, 0.049963951110839844, -0.03452913710879303, -0.010801799061837945, 0.9965347169304526,0.07489687813087426,-0.1477813720703125,0.3100433349609375,-0.872955322265625
20230421-1511,2023-04-21 15:11:50,u10, 121,100,movements,wr-su, lt, d,957609.3970566667, -0.005581495743548495, -0.05077218805414172, 0.15498795824320347, 1.7805038690567017, 1.017148494720459, 0.5300094485282898, -0.005574274342507124, 0.050750378519296646, -0.9986957907676697, -0.044596657156944275, 0.11471593379974365, 0.020149648189544678, -0.02509110955194419, -0.004746554566167878, 0.996668236205702,0.07746181994989641,-0.0941925048828125,0.2127532958984375,-0.9940185546875
20230421-1511,2023-04-21 15:11:50,u10, 122,100,movements,wr-su, lt, d,957609.4070786667, 0.0038544497547535216, -0.03502626509839492, 0.16017838341248986, 1.3591731786727905, 0.8089524507522583, 0.4965565502643585, 0.003852076129987836, 0.035019103437662125, -0.9993792176246643, 0.000588196562603116, 0.060409363359212875, 0.008183598518371582, -0.017610231332600916, 0.0005197121650009978, 0.9966425980673531,0.07995753847064574,-0.0173492431640625,0.1286468505859375,-0.9798126220703125
20230421-1511,2023-04-21 15:11:50,u10, 123,100,movements,wr-su, lt, d,957609.4171006667, 0.011131389173625623, -0.023677643153937167, 0.164844895500504, 0.8837427496910095, 0.6309624314308167, 0.45998415350914, 0.011128039099276066, 0.023675430566072464, -0.9996577501296997, 0.024043435230851173, 0.024160875007510185, 0.013512730598449707, -0.01225635681823196, 0.004571740372311112, 0.9965253702194518,0.08225644470922679,0.0273590087890625,0.0643157958984375,-0.9979248046875
20230421-1511,2023-04-21 15:11:50,u10, 124,100,movements,wr-su, lt, d,957609.4271236667, 0.017017083447014195, -0.01672175713502199, 0.16939213955953816, 0.49418962001800537, 0.5408008694648743, 0.4809246063232422, 0.017013883218169212, 0.016720978543162346, -0.9997154474258423, -0.0010684840381145477, 0.0424373522400856, 0.07147753238677979, -0.00905025473442699, 0.0077703902586437465, 0.9963505572475138,0.08451794490565781,0.0307159423828125,0.0486297607421875,-0.95599365234375
20230421-1511,2023-04-21 15:11:50,u10, 125,100,movements,wr-su, lt, d,957609.4371456667, 0.022196854538395695, -0.012754336824945641, 0.17435067682115593, 0.2715994119644165, 0.4941406548023224, 0.522788405418396, 0.02219322696328163, 0.012753991410136223, -0.9996723532676697, -0.029242822900414467, 0.09034965187311172, 0.11600536108016968, -0.007318762215492986, 0.010500640576400034, 0.9961272055156151,0.08698732539170662,0.0019378662109375,0.0774383544921875,-0.9072265625
20230421-1511,2023-04-21 15:11:50,u10, 126,100,movements,wr-su, lt, d,957609.4471676667, 0.02720478622977635, -0.009942626579079407, 0.1795810578744155, 0.29702460765838623, 0.5147706270217896, 0.5386698842048645, 0.027200086042284966, 0.009942462667822838, -0.9995805621147156, -0.0513090081512928, 0.1515718251466751, 0.17870348691940308, -0.00617048125641136, 0.013101277410010914, 0.995873123409472,0.08959317647391146,-0.014312744140625,0.1421356201171875,-0.870208740234375
20230421-1511,2023-04-21 15:11:50,u10, 127,100,movements,wr-su, lt, d,957609.4571896667, 0.032830602609926665, -0.005800995094433112, 0.18523564974728898, 0.4939752221107483, 0.6321457028388977, 0.6263648867607117, 0.03282415121793747, 0.005800962448120117, -0.999444305896759, -0.07379403710365295, 0.13667035102844238, 0.14679843187332153, -0.004405775197112274, 0.016075925685310626, 0.9955801023408168,0.09242521215738918,-0.036773681640625,0.1459503173828125,-0.8097381591796875
20230421-1511,2023-04-21 15:11:50,u10, 128,100,movements,wr-su, lt, d,957609.4672116667, 0.03977866721319512, 0.0005311141770444989, 0.19181520963566068, 0.7004514932632446, 0.7559736371040344, 0.7197384834289551, 0.039768170565366745, -0.0005311141721904278, -0.9992088079452515, -0.03831862285733223, 0.1875886172056198, 0.15968549251556396, -0.0016402051289408047, 0.01982204826516882, 0.9952070049862051,0.09574695231211777,-0.0292816162109375,0.16204833984375,-0.83203125
20230421-1511,2023-04-21 15:11:50,u10, 129,100,movements,wr-su, lt, d,957609.4772336667, 0.04734695071044885, 0.008672358659225029, 0.19892593740872694, 0.826917290687561, 0.7498683333396912, 0.7452811598777771, 0.04732748121023178, -0.008672249503433704, -0.9988417625427246, 0.030217647552490234, 0.17041541635990143, 0.11389303207397461, 0.001963013643100886, 0.02398450847610992, 0.9947592204453025,0.09937243687898092,0.0363006591796875,0.19195556640625,-0.878173828125
20230421-1511,2023-04-21 15:11:50,u10, 130,100,movements,wr-su, lt, d,957609.4872556668, 0.05458074823208973, 0.016757064979858374, 0.20585658594366477, 0.67325359582901, 0.7129313349723816, 0.7415361404418945, 0.054545994848012924, -0.01675628125667572, -0.9983706474304199, 0.08964952826499939, 0.03465484827756882, 0.06732511520385742, 0.005527440785034459, 0.028002155308851404, 0.9942787602155131,0.10293219855736851,0.1196136474609375,0.0966644287109375,-0.904327392578125
20230421-1511,2023-04-21 15:11:50,u10, 131,100,movements,wr-su, lt, d,957609.4972776667, 0.06108208804445786, 0.022293524960840878, 0.21287162760031914, 0.3406916558742523, 0.6040935516357422, 0.7036705017089844, 0.061028942465782166, -0.022291678935289383, -0.9978870153427124, 0.12906500697135925, -0.12945696711540222, 0.10761302709579468, 0.007834464446851526, 0.031545205280692316, 0.9937794696636483,0.10651727337170522,0.1688232421875,-0.0680694580078125,-0.918426513671875
20230421-1511,2023-04-21 15:11:50,u10, 132,100,movements,wr-su, lt, d,957609.5073006668, 0.06645719348230093, 0.02454419528185233, 0.21941795402696304, 0.006612194702029228, 0.5165599584579468, 0.6379067301750183, 0.06638828665018082, -0.024541731923818588, -0.9974920153617859, 0.1137569472193718, -0.1986790895462036, 0.1364538073539734, 0.00855405463629772, 0.034363148016889826, 0.9933198238314808,0.10982560379422523,0.1909027099609375,-0.211212158203125,-0.870391845703125
20230421-1511,2023-04-21 15:11:50,u10, 133,100,movements,wr-su, lt, d,957609.5173226667, 0.07125249539863222, 0.023540200590930326, 0.22587294005099337, -0.24665416777133942, 0.4644485414028168, 0.6360310316085815, 0.07117249816656113, -0.023538026958703995, -0.9971862435340881, 0.10326594859361649, -0.05213030427694321, 0.14698177576065063, 0.007673599572265697, 0.03671492895565535, 0.9928828685598827,0.11303379412303206,0.1739044189453125,-0.165283203125,-0.8510284423828125
20230421-1511,2023-04-21 15:11:50,u10, 134,100,movements,wr-su, lt, d,957609.5273446668, 0.07528838287774978, 0.021688069689091375, 0.2322529609292556, -0.19712045788764954, 0.3724331259727478, 0.60090172290802, 0.07519958913326263, -0.02168636955320835, -0.9969326853752136, 0.10499141365289688, 0.0634344220161438, 0.05487030744552612, 0.006402775052577943, 0.03863515987604223, 0.9924556175973418,0.1161821172064107,0.1782989501953125,-0.0070037841796875,-0.88824462890625
20230421-1511,2023-04-21 15:11:50,u10, 135,100,movements,wr-su, lt, d,957609.5373666667, 0.0784437348221977, 0.020972700507902793, 0.23825064298208476, -0.03297999128699303, 0.2818148136138916, 0.5854519605636597, 0.07834607362747192, -0.020971162244677544, -0.9967056512832642, 0.10157027095556259, 0.1458948701620102, -0.02752530574798584, 0.005744011288058513, 0.04017703224077573, 0.9920459168894286,0.11915411156158583,0.179473876953125,0.0903167724609375,-0.986846923828125
20230421-1511,2023-04-21 15:11:50,u10, 136,100,movements,wr-su, lt, d,957609.5473886668, 0.08056984974646882, 0.02194615476072244, 0.2438396657583321, 0.12141625583171844, 0.16925524175167084, 0.5271080732345581, 0.08046332746744156, -0.02194439247250557, -0.9965159893035889, 0.10531239211559296, 0.14760053157806396, -0.06299328804016113, 0.005984816457498008, 0.04130608155836135, 0.9916582369499942,0.12195066297323258,0.184783935546875,0.1364593505859375,-1.05047607421875
20230421-1511,2023-04-21 15:11:50,u10, 137,100,movements,wr-su, lt, d,957609.5574106667, 0.08163344560317475, 0.023987690399028653, 0.24856141552643773, 0.20440834760665894, 0.0715625137090683, 0.4546256363391876, 0.08151935040950775, -0.02398538962006569, -0.9963831305503845, 0.06739113479852676, 0.08746196329593658, -0.05011039972305298, 0.0068332261564823275, 0.04197324469618758, 0.9913286536409324,0.12433449346898834,0.1726226806640625,0.0975341796875,-1.05657958984375
20230421-1511,2023-04-21 15:11:50,u10, 138,100,movements,wr-su, lt, d,957609.5674326668, 0.08206581184428798, 0.02669256290733173, 0.2528443475937836, 0.2565785050392151, 0.044945280998945236, 0.44488999247550964, 0.0819445252418518, -0.02668939344584942, -0.9962794780731201, 0.013819597661495209, 0.026567328721284866, -0.04266095161437988, 0.008056482793641127, 0.04237169931187475, 0.9910270456627139,0.12651143099294934,0.12188720703125,0.027801513671875,-1.041595458984375
20230421-1511,2023-04-21 15:11:50,u10, 139,100,movements,wr-su, lt, d,957609.5774556667, 0.08246332120163848, 0.029812797392702203, 0.25701255443539955, 0.2755953371524811, 0.06241455674171448, 0.4312775135040283, 0.0823332890868187, -0.02980838157236576, -0.9961589574813843, -0.02676081657409668, -0.03166927397251129, -0.03425180912017822, 0.009488503141974351, 0.0427841590734807, 0.9907226866181386,0.12863909089629225,0.0720367431640625,-0.026611328125,-1.0359954833984375
20230421-1511,2023-04-21 15:11:50,u10, 140,100,movements,wr-su, lt, d,957609.5874776667, 0.08294010652446562, 0.032454173964901176, 0.2610373060938094, 0.18728511035442352, 0.052395474165678024, 0.4118659496307373, 0.08280142396688461, -0.032448478043079376, -0.9960376620292664, -0.0419536754488945, -0.09412316977977753, -0.0018566250801086426, 0.010679525824020968, 0.04321015336272725, 0.9904241537370402,0.13068637283675502,0.0465850830078125,-0.09735107421875,-1.0180206298828125
20230421-1511,2023-04-21 15:11:50,u10, 141,100,movements,wr-su, lt, d,957609.5974996667, 0.08316006761356878, 0.03457420391000816, 0.2649032373337927, 0.17397624254226685, 0.01963673159480095, 0.3853970766067505, 0.0830146074295044, -0.03456731513142586, -0.9959486126899719, -0.042792484164237976, -0.13239434361457825, 0.0239180326461792, 0.011631170908236222, 0.04347873575138157, 0.9901414586827685,0.13264308253992055,0.039031982421875,-0.1545562744140625,-0.9813995361328125
20230421-1511,2023-04-21 15:11:50,u10, 142,100,movements,wr-su, lt, d,957609.6075216667, 0.0831220688159453, 0.036950155279486724, 0.2682527166644598, 0.25072160363197327, 0.002621262101456523, 0.3165593445301056, 0.08296971023082733, -0.03694174811244011, -0.995867133140564, -0.042198263108730316, -0.07170082628726959, 0.046587347984313965, 0.012737109879771124, 0.04363716958557837, 0.9898911410827145,0.1343469730615199,0.0403289794921875,-0.146209716796875,-0.96099853515625
20230421-1511,2023-04-21 15:11:50,u10, 143,100,movements,wr-su, lt, d,957609.6175436667, 0.08302738167967581, 0.040248768622049694, 0.2708659765480269, 0.35176804661750793, 0.0023874365724623203, 0.2563236951828003, 0.08286485821008682, -0.0402379035949707, -0.9957481026649475, -0.03484548628330231, -0.0262598879635334, 0.07228624820709229, 0.014319173137299624, 0.04382806560647915, 0.9896760441530531,0.13570319798098274,0.0441131591796875,-0.0790863037109375,-0.938751220703125
20230421-1511,2023-04-21 15:11:50,u10, 144,100,movements,wr-su, lt, d,957609.6275656667, 0.08286556091153484, 0.043982656687658286, 0.27284155684909633, 0.34842973947525024, -0.025027142837643623, 0.19782505929470062, 0.08269070833921432, -0.043968476355075836, -0.9956048727035522, -0.02485993504524231, -0.04135866463184357, 0.09939515590667725, 0.016134754388546942, 0.044014134507425424, 0.9894956983896299,0.13675081332628972,0.050811767578125,-0.0718841552734375,-0.909210205078125
20230421-1511,2023-04-21 15:11:50,u10, 145,100,movements,wr-su, lt, d,957609.6375876667, 0.08233125240184647, 0.047336686346306875, 0.274209337096328, 0.2888026237487793, -0.06888328492641449, 0.12985053658485413, 0.08214615285396576, -0.04731900990009308, -0.9954963326454163, -0.002357982099056244, -0.07539216428995132, 0.12374645471572876, 0.017801016007729806, 0.043988225170838814, 0.9893663751966106,0.1374862993612252,0.068267822265625,-0.105194091796875,-0.8844757080078125
20230421-1511,2023-04-21 15:11:50,u10, 146,100,movements,wr-su, lt, d,957609.6476106667, 0.08133632155278193, 0.05017528470432837, 0.27496378381337017, 0.25935736298561096, -0.12115847319364548, 0.06448385119438171, 0.08114442229270935, -0.05015423521399498, -0.9954396486282349, 0.014375559985637665, -0.10960528254508972, 0.14549458026885986, 0.019257519798691936, 0.0436956877594901, 0.9892939741933331,0.13790305376241596,0.08905029296875,-0.137603759765625,-0.8585968017578125
20230421-1511,2023-04-21 15:11:50,u10, 147,100,movements,wr-su, lt, d,957609.6576326668, 0.07974260613591981, 0.052259229839719444, 0.275048290953793, 0.14269013702869415, -0.19965142011642456, -0.0097283236682415, 0.07954937219619751, -0.052235446870326996, -0.9954614043235779, 0.027582556009292603, -0.1381026804447174, 0.15697568655014038, 0.02039671152091751, 0.043049795357043626, 0.9892905887109682,0.1379669356963476,0.1019134521484375,-0.1779632568359375,-0.843017578125
20230421-1511,2023-04-21 15:11:50,u10, 148,100,movements,wr-su, lt, d,957609.6676546667, 0.07722493962324542, 0.052944491166334276, 0.27460505088688164, -0.007505393587052822, -0.3036468029022217, -0.0662887766957283, 0.07704009860754013, -0.05291976034641266, -0.9956225752830505, 0.03264003247022629, -0.17735061049461365, 0.1647205352783203, 0.02091872097569189, 0.04184635404921691, 0.9893637394124295,0.13773376349614802,0.1084442138671875,-0.2050018310546875,-0.8366546630859375
20230421-1511,2023-04-21 15:11:50,u10, 149,100,movements,wr-su, lt, d,957609.6776766668, 0.07387532016306324, 0.05207137081091645, 0.2738064939570593, -0.15870636701583862, -0.37127402424812317, -0.10077565163373947, 0.07370810210704803, -0.052047841250896454, -0.9959207773208618, 0.02777806669473648, -0.20471179485321045, 0.20162451267242432, 0.020733324736036427, 0.04012175078682339, 0.9895009253806559,0.13728905727295407,0.1067047119140625,-0.252410888671875,-0.8186187744140625
20230421-1511,2023-04-21 15:11:50,u10, 150,100,movements,wr-su, lt, d,957609.6876986667, 0.06994580878843382, 0.04956115717298601, 0.27290429187944176, -0.3381131589412689, -0.42411649227142334, -0.11309748142957687, 0.06980296969413757, -0.049540869891643524, -0.9963299036026001, 0.027746431529521942, -0.16302931308746338, 0.3122478723526001, 0.019777813796352847, 0.0379986041010239, 0.9896771370207944,0.13676252143080841,0.0989532470703125,-0.2439422607421875,-0.750244140625
20230421-1511,2023-04-21 15:11:50,u10, 151,100,movements,wr-su, lt, d,957609.6977206668, 0.06538054764260925, 0.045024108813983915, 0.2717721091075663, -0.5591027736663818, -0.5040485858917236, -0.18211063742637634, 0.06526777148246765, -0.04500889778137207, -0.9968522191047668, 0.02816176414489746, -0.07797692716121674, 0.46792155504226685, 0.017864147678644134, 0.03542273142356809, 0.9899017799157865,0.1360905113398716,0.097076416015625,-0.1688690185546875,-0.6069183349609375
20230421-1511,2023-04-21 15:11:50,u10, 152,100,movements,wr-su, lt, d,957609.7077426667, 0.059854960076137165, 0.03823752160960235, 0.2697920664187255, -0.7691178917884827, -0.6155588626861572, -0.2967778742313385, 0.05977550148963928, -0.03822820261120796, -0.9974795579910278, 0.008156593888998032, -0.009409729391336441, 0.6058322191238403, 0.01491190670222251, 0.032215676643816755, 0.9902135996691976,0.13496936385590166,0.0845184326171875,-0.0810546875,-0.454681396484375
20230421-1511,2023-04-21 15:11:50,u10, 153,100,movements,wr-su, lt, d,957609.7177656668, 0.05322124342834606, 0.02897971882174491, 0.2668691640170535, -1.0670151710510254, -0.7261911034584045, -0.3905198276042938, 0.05317378416657448, -0.02897566184401512, -0.9981647729873657, -0.03982238098978996, 0.02509993687272072, 0.6585651636123657, 0.010816009191886501, 0.02829516037821064, 0.990604601921263,0.13336000963279462,0.0425567626953125,-0.0216217041015625,-0.350250244140625
20230421-1511,2023-04-21 15:11:50,u10, 154,100,movements,wr-su, lt, d,957609.7277876667, 0.04540955813008826, 0.015769766521947746, 0.2630932138188901, -1.5564439296722412, -0.8460128307342529, -0.4893708825111389, 0.04538831114768982, -0.015769112855196, -0.9988449215888977, -0.1047755554318428, 0.026557086035609245, 0.5898789167404175, 0.004836882153162573, 0.023539945946388155, 0.9910503571549666,0.13130712692651483,-0.0207061767578125,0.00628662109375,-0.361053466796875
20230421-1511,2023-04-21 15:11:50,u10, 155,100,movements,wr-su, lt, d,957609.7378096668, 0.0364874152216846, -0.0029826825199173045, 0.2585089328971195, -2.140796422958374, -0.9314358234405518, -0.5637561082839966, 0.0364791564643383, 0.002982678124681115, -0.9993299841880798, -0.171733096241951, -0.008903080597519875, 0.44145339727401733, -0.003830041604810924, 0.01789830602650893, 0.9914956185442904,0.12884629516878965,-0.09820556640625,0.00726318359375,-0.47393798828125
20230421-1511,2023-04-21 15:11:50,u10, 156,100,movements,wr-su, lt, d,957609.7478316667, 0.026752300612242506, -0.026828041315372267, 0.25362385412495075, -2.561697483062744, -0.9979773163795471, -0.5566486716270447, 0.026739483699202538, 0.026824822649359703, -0.9992824792861938, -0.21367494761943817, -0.07708726823329926, 0.22718775272369385, -0.014996227521113252, 0.011570852152556153, 0.9918149139360273,0.12627164214563463,-0.1662750244140625,-0.02789306640625,-0.657623291015625
20230421-1511,2023-04-21 15:11:50,u10, 157,100,movements,wr-su, lt, d,957609.7578536667, 0.01618165572013454, -0.053587934846041, 0.24882724581719964, -2.710637331008911, -1.0754886865615845, -0.5219069123268127, 0.0161577221006155, 0.05356229096651077, -0.9984337687492371, -0.21008171141147614, -0.10651028156280518, -0.0054419636726379395, -0.027586458184072696, 0.004700886674367018, 0.9919088689842083,0.12382922706201191,-0.196044921875,-0.058624267578125,-0.8897247314453125
20230421-1511,2023-04-21 15:11:50,u10, 158,100,movements,wr-su, lt, d,957609.7678756667, 0.004813162009450887, -0.08013721856511867, 0.2439757132521948, -2.578684091567993, -1.113194465637207, -0.5003925561904907, 0.004797696601599455, 0.0800514742732048, -0.996779203414917, -0.15825536847114563, -0.0860481709241867, -0.1717541217803955, -0.04005270022687935, -0.00248767331258672, 0.9917809356472528,0.12149181742450463,-0.180389404296875,-0.03680419921875,-1.096832275390625
20230421-1511,2023-04-21 15:11:50,u10, 159,100,movements,wr-su, lt, d,957609.7778976667, -0.006947964275837089, -0.1050978455541501, 0.2390275258055446, -2.371990203857422, -1.1490223407745361, -0.48541733622550964, -0.0069095720537006855, 0.10490447282791138, -0.9944583177566528, -0.06541712582111359, -0.04379301518201828, -0.22287261486053467, -0.051736126688569035, -0.009706892273588345, 0.9914684237923538,0.11924532464181928,-0.1158599853515625,0.0312652587890625,-1.2057037353515625
20230421-1511,2023-04-21 15:11:50,u10, 160,100,movements,wr-su, lt, d,957609.7879196667, -0.01952196976310085, -0.12608290998105326, 0.23375204666310292, -1.7793309688568115, -1.2522988319396973, -0.5222671031951904, -0.01936577633023262, 0.1257491260766983, -0.991873025894165, 0.035356953740119934, -0.0315413624048233, -0.3066651225090027, -0.06143097372816845, -0.017021033655275124, 0.9910859928357179,0.11698366073871581,-0.027496337890625,0.076446533203125,-1.2512054443359375
20230421-1511,2023-04-21 15:11:50,u10, 161,100,movements,wr-su, lt, d,957609.7979426667, -0.03401062420023409, -0.1404373539585665, 0.22743356464983486, -1.1649551391601562, -1.4888114929199219, -0.6656237244606018, -0.03366929292678833, 0.13997617363929749, -0.9895822405815125, 0.11087873578071594, 0.06830629706382751, -0.34481412172317505, -0.06777297410422198, -0.024813174472816786, 0.990814179948188,0.114361196653425,0.053985595703125,0.1367950439453125,-1.333770751953125
20230421-1511,2023-04-21 15:11:50,u10, 162,100,movements,wr-su, lt, d,957609.8079646667, -0.05157359377735134, -0.15035409350323212, 0.21926551555803284, -0.9050923585891724, -1.7628233432769775, -0.8602107167243958, -0.050969142466783524, 0.1497882455587387, -0.9874034523963928, 0.09779833257198334, 0.1534038931131363, -0.2825855016708374, -0.07181738594350119, -0.033771641511110076, 0.9906474291900969,0.11099287249764163,0.0773468017578125,0.27667236328125,-1.3031463623046875
20230421-1511,2023-04-21 15:11:50,u10, 163,100,movements,wr-su, lt, d,957609.8179866667, -0.07113894130317014, -0.1577611261317184, 0.20942540161025594, -0.6922038197517395, -1.7971299886703491, -0.9706160426139832, -0.07019626349210739, 0.15710753202438354, -0.9850835800170898, -0.00022307783365249634, 0.020352184772491455, -0.19234555959701538, -0.07461217969975467, -0.04348816782688711, 0.9905101691534,0.10691743056181444,-0.007110595703125,0.2656707763671875,-1.2339019775390625
20230421-1511,2023-04-21 15:11:50,u10, 164,100,movements,wr-su, lt, d,957609.8280086668, -0.08985967295656974, -0.16285564280229967, 0.1989976756760865, -0.4918774962425232, -1.588916540145874, -0.982854425907135, -0.08855139464139938, 0.1621367186307907, -0.982787013053894, -0.0905257910490036, -0.1342131346464157, -0.05239975452423096, -0.07640709184295, -0.05261601778972729, 0.9903932373803237,0.10254089940989446,-0.1331634521484375,0.0848388671875,-1.100555419921875
20230421-1511,2023-04-21 15:11:50,u10, 165,100,movements,wr-su, lt, d,957609.8380306667, -0.106451174144347, -0.16573447324428628, 0.1886507962349437, -0.2803758978843689, -1.4037861824035645, -0.9969305396080017, -0.10479433834552765, 0.1649767905473709, -0.9807144403457642, -0.07586975395679474, -0.12792843580245972, -0.04005277156829834, -0.07729425760244321, -0.06056714819348028, 0.9903186153590614,0.09811342071034247,-0.195587158203125,0.01727294921875,-1.009307861328125
20230421-1511,2023-04-21 15:11:50,u10, 166,100,movements,wr-su, lt, d,957609.8480526668, -0.12211819732106781, -0.1663650947707935, 0.17797006973616114, -0.08569985628128052, -1.383513331413269, -1.0777159929275513, -0.12013302743434906, 0.16559873521327972, -0.9788488745689392, 0.024277277290821075, -0.04572567343711853, -0.1297174096107483, -0.07719963362335713, -0.0679395267467199, 0.990299201671805,0.09344531515812922,-0.1436309814453125,0.07470703125,-1.0567779541015625
20230421-1511,2023-04-21 15:11:50,u10, 167,100,movements,wr-su, lt, d,957609.8580746667, -0.13811869711988836, -0.16457545250070538, 0.16672494843201888, 0.15484032034873962, -1.4377070665359497, -1.1603951454162598, -0.13581964373588562, 0.16383352875709534, -0.9770934581756592, 0.12945669889450073, 0.017868131399154663, -0.23498845100402832, -0.07598793072778903, -0.0753598769978561, 0.9903158448022501,0.08843851435706213,-0.047332763671875,0.157928466796875,-1.1605224609375
20230421-1511,2023-04-21 15:11:50,u10, 168,100,movements,wr-su, lt, d,957609.8680976668, -0.1544302148444536, -0.16028804757612944, 0.15526728714388194, 0.35098031163215637, -1.4439034461975098, -1.1876752376556396, -0.15184539556503296, 0.1596025675535202, -0.9754332304000854, 0.18280546367168427, 0.035252153873443604, -0.2860413193702698, -0.07361597683563095, -0.08284967590126519, 0.9903478882896307,0.0832333613247691,0.020477294921875,0.1957244873046875,-1.246856689453125
20230421-1511,2023-04-21 15:11:50,u10, 169,100,movements,wr-su, lt, d,957609.8781196667, -0.17065523868008736, -0.15410961054958053, 0.1441702904173131, 0.5109230875968933, -1.4488539695739746, -1.16775643825531, -0.1678154021501541, 0.15350031852722168, -0.9737944602966309, 0.19045941531658173, -0.009579434990882874, -0.27193307876586914, -0.07037946772930959, -0.09027460101969992, 0.990352942693597,0.07809116333172017,0.0315399169921875,0.17822265625,-1.25994873046875
20230421-1511,2023-04-21 15:11:50,u10, 170,100,movements,wr-su, lt, d,957609.8881416668, -0.18688085986616965, -0.1464791593634513, 0.13358863981182145, 0.5850887894630432, -1.470393419265747, -1.1613824367523193, -0.18380531668663025, 0.1459559053182602, -0.9720661044120789, 0.15098361670970917, -0.06010995805263519, -0.21874505281448364, -0.0664815650089621, -0.0977095595971263, 0.9902985376916166,0.0730876020194295,0.00274658203125,0.104766845703125,-1.222259521484375
20230421-1511,2023-04-21 15:11:50,u10, 171,100,movements,wr-su, lt, d,957609.8981636667, -0.20302702137025067, -0.13890243504548108, 0.12311030224596949, 0.47507280111312866, -1.4481514692306519, -1.154292345046997, -0.19969305396080017, 0.13845621049404144, -0.9700270891189575, 0.07035954296588898, -0.003095492720603943, -0.1184433102607727, -0.06268841111821954, -0.10515045896899683, 0.990141252664361,0.06807122267215461,-0.0785980224609375,0.098846435546875,-1.1453704833984375
20230421-1511,2023-04-21 15:11:50,u10, 172,100,movements,wr-su, lt, d,957609.9081856668, -0.21867201857030794, -0.13239176078368703, 0.11284053444449112, 0.39273062348365784, -1.3956445455551147, -1.1001579761505127, -0.215035080909729, 0.13200534880161285, -0.9676437973976135, 0.0031972676515579224, 0.06359706819057465, -0.009345948696136475, -0.05950819807996772, -0.11241387472471698, 0.9898664427576481,0.06313727625485845,-0.1759185791015625,0.173065185546875,-1.027557373046875
20230421-1511,2023-04-21 15:11:50,u10, 173,100,movements,wr-su, lt, d,957609.9182076667, -0.23366569939913184, -0.1257440766665104, 0.10315600230260935, 0.4715186357498169, -1.3505910634994507, -1.0658886432647705, -0.22971701622009277, 0.1254129707813263, -0.9651433229446411, -0.038028985261917114, 0.0776662528514862, 0.04033869504928589, -0.05632154398842721, -0.11939937012715451, 0.9895247369130877,0.05841675683271079,-0.240447998046875,0.2027130126953125,-0.945404052734375
20230421-1511,2023-04-21 15:11:50,u10, 174,100,movements,wr-su, lt, d,957609.9282296668, -0.24803127796953492, -0.11841858552661012, 0.09398493098250577, 0.5027676224708557, -1.2963145971298218, -1.048060655593872, -0.24377667903900146, 0.1181420162320137, -0.9626086354255676, -0.08552326261997223, 0.1067877933382988, 0.0793994665145874, -0.05285485910912445, -0.12610330105966583, 0.9891436602264331,0.05384442195747981,-0.2974395751953125,0.2106170654296875,-0.9064178466796875
20230421-1511,2023-04-21 15:11:50,u10, 175,100,movements,wr-su, lt, d,957609.9382526667, -0.26153181768817646, -0.11074966646141615, 0.08522971284950162, 0.5446567535400391, -1.195014238357544, -1.0143866539001465, -0.25697651505470276, 0.11052340269088745, -0.9600768685340881, -0.12504255771636963, 0.10343533009290695, 0.1263061761856079, -0.04927768264504502, -0.13241322877745315, 0.9887363784739054,0.04938377620989942,-0.3582611083984375,0.229827880859375,-0.857666015625
20230421-1511,2023-04-21 15:11:50,u10, 176,100,movements,wr-su, lt, d,957609.9482746667, -0.2738607722585771, -0.1026679377796649, 0.07708722229027168, 0.5758461356163025, -1.0964155197143555, -0.9737659096717834, -0.2690262198448181, 0.10248766839504242, -0.957664430141449, -0.13874968886375427, 0.03323926031589508, 0.12702172994613647, -0.04554029877142463, -0.13818054588256648, 0.9883300281500166,0.045122045894651804,-0.3970794677734375,0.1782073974609375,-0.8226165771484375
20230421-1511,2023-04-21 15:11:50,u10, 177,100,movements,wr-su, lt, d,957609.9582966667, -0.2851847802396406, -0.09420398665005912, 0.06953039717095856, 0.6446737051010132, -1.0163239240646362, -0.9300035238265991, -0.28008735179901123, 0.09406471252441406, -0.9553548693656921, -0.13038936257362366, -0.020746231079101562, 0.06733912229537964, -0.04164455554056386, -0.14348625474147989, 0.9879229990221449,0.04105440706295759,-0.41253662109375,0.09979248046875,-0.853912353515625
20230421-1511,2023-04-21 15:11:50,u10, 178,100,movements,wr-su, lt, d,957609.9683186667, -0.2955974907123772, -0.08489315222553391, 0.06288329929829016, 0.7484498620033264, -0.947923481464386, -0.8727100491523743, -0.2902624011039734, 0.08479122072458267, -0.9531831741333008, -0.0938776433467865, -0.026533156633377075, -0.02385234832763672, -0.03732525424851271, -0.14837530234924012, 0.9875218721302544,0.03731150069120914,-0.40045166015625,0.058807373046875,-0.9334716796875
20230421-1511,2023-04-21 15:11:50,u10, 179,100,movements,wr-su, lt, d,957609.9783406667, -0.3055627555110856, -0.07457632132729831, 0.05697334639392656, 0.8903289437294006, -0.949273407459259, -0.8632427453994751, -0.29999375343322754, 0.0745072141289711, -0.9510270357131958, -0.04285600781440735, 0.0061812624335289, -0.0916060209274292, -0.03249860263777937, -0.15306965723813867, 0.9871023117496421,0.03380265405750893,-0.363433837890625,0.069854736328125,-1.015045166015625
20230421-1511,2023-04-21 15:11:50,u10, 180,100,movements,wr-su, lt, d,957609.9883626667, -0.315541437065051, -0.062380424355692736, 0.05177012770842857, 1.0899032354354858, -0.9727209806442261, -0.8639270663261414, -0.30972760915756226, 0.06233997642993927, -0.9487795233726501, -0.015284597873687744, 0.00881175696849823, -0.11512428522109985, -0.026722965207304897, -0.15778508174251565, 0.9866422488525352,0.030446358234878835,-0.3315887451171875,0.07958984375,-1.061065673828125
20230421-1511,2023-04-21 15:11:50,u10, 181,100,movements,wr-su, lt, d,957609.9983846667, -0.3256184039798822, -0.049155231318325665, 0.0471019592942438, 1.1043999195098877, -0.9881411790847778, -0.8518158197402954, -0.3195083737373352, 0.04913543909788132, -0.9463086724281311, 0.0018966197967529297, 0.028836973011493683, -0.0789446234703064, -0.02042753766449159, -0.16256807630385078, 0.9861103853782145,0.027212675208621133,-0.3215484619140625,0.072662353515625,-1.048370361328125
20230421-1511,2023-04-21 15:11:50,u10, 182,100,movements,wr-su, lt, d,957610.0084076667, -0.3358165967859164, -0.03574195722226954, 0.04268375818065959, 1.1445446014404297, -1.0078638792037964, -0.8520146608352661, -0.32932978868484497, 0.03573434799909592, -0.9435385465621948, 0.003188401460647583, -0.006132297217845917, -0.055606961250305176, -0.01404887619591729, -0.16743168687439003, 0.9854907920422469,0.024022547987499438,-0.315948486328125,0.06683349609375,-1.0091400146484375
20230421-1511,2023-04-21 15:11:50,u10, 183,100,movements,wr-su, lt, d,957610.0184296668, -0.3460734336101716, -0.022234717094368004, 0.03841431058107158, 1.0856897830963135, -1.0006027221679688, -0.8462393283843994, -0.33912283182144165, 0.022232884541153908, -0.9404793381690979, -0.04140087962150574, -0.06912314891815186, -0.0307425856590271, -0.007642516731246865, -0.1723424350178054, 0.9847871560243494,0.020831725016751734,-0.347869873046875,-0.0170745849609375,-0.98895263671875
20230421-1511,2023-04-21 15:11:50,u10, 184,100,movements,wr-su, lt, d,957610.0284516667, -0.3555826393182827, -0.009590150855399344, 0.034229829544589786, 1.006417989730835, -0.8720313906669617, -0.7986196279525757, -0.3481205999851227, 0.00959000363945961, -0.9374006986618042, -0.08028516173362732, -0.07337174564599991, 0.06859582662582397, -0.0016920849392517464, -0.1769089701310932, 0.9840667807060528,0.01769202175310422,-0.4112548828125,-0.0554656982421875,-0.9295654296875
20230421-1511,2023-04-21 15:11:50,u10, 185,100,movements,wr-su, lt, d,957610.0384736668, -0.36379872724813095, 0.002887924271090115, 0.030644729664624427, 1.0938799381256104, -0.7725186347961426, -0.7545962333679199, -0.35582542419433594, -0.002887920243665576, -0.9345479607582092, -0.07084089517593384, -0.07213954627513885, 0.0934072732925415, 0.004191644736718852, -0.1808547401383082, 0.9833894283171728,0.014807789891985836,-0.43011474609375,-0.074249267578125,-0.828826904296875
20230421-1511,2023-04-21 15:11:50,u10, 186,100,movements,wr-su, lt, d,957610.0484956667, -0.3711589029614706, 0.016568590851395684, 0.027775209817321966, 1.239734411239624, -0.6988713145256042, -0.7700388431549072, -0.3626458942890167, -0.016567833721637726, -0.9317797422409058, -0.07193970680236816, -0.008502358570694923, -0.0032025575637817383, 0.010703488171168743, -0.18437888051277204, 0.9827221859715968,0.012119820272395788,-0.428009033203125,-0.0590972900390625,-0.8896484375
20230421-1511,2023-04-21 15:11:50,u10, 187,100,movements,wr-su, lt, d,957610.0585176668, -0.3776091500840392, 0.03161049760907216, 0.02513645162288387, 1.3481006622314453, -0.5930958986282349, -0.8080266714096069, -0.36851492524147034, -0.03160523250699043, -0.9290844202041626, -0.09635937213897705, 0.06291626393795013, -0.0407489538192749, 0.017881014019404774, -0.18745147677624066, 0.9820663774194606,0.009376964746507954,-0.448516845703125,0.012847900390625,-0.958709716796875
20230421-1511,2023-04-21 15:11:50,u10, 188,100,movements,wr-su, lt, d,957610.0685396667, -0.3828456994897454, 0.04745097519711649, 0.022538429202522935, 1.369213342666626, -0.49462181329727173, -0.83763188123703, -0.37314119935035706, -0.047433171421289444, -0.9265612363815308, -0.07555878162384033, 0.032326966524124146, -0.04328739643096924, 0.025431850474922028, -0.1899278582598597, 0.9814468517174274,0.006546824449931777,-0.4659881591796875,0.0179901123046875,-0.9698028564453125
20230421-1511,2023-04-21 15:11:50,u10, 189,100,movements,wr-su, lt, d,957610.0785626668, -0.38763612929800434, 0.06284679843027763, 0.019854314189810308, 1.2683897018432617, -0.4998796880245209, -0.8056646585464478, -0.3772547245025635, -0.06280543655157089, -0.9239774346351624, 0.006923884153366089, -0.004272200167179108, -0.07915055751800537, 0.032739498052108185, -0.19219624837261803, 0.9808032994435971,0.0036852437176413694,-0.413970947265625,-0.0444183349609375,-0.98529052734375
20230421-1511,2023-04-21 15:11:50,u10, 190,100,movements,wr-su, lt, d,957610.0885846667, -0.3927145382822422, 0.07692677345751667, 0.01713323844736843, 1.098839521408081, -0.5452194213867188, -0.7686915993690491, -0.3815659284591675, -0.07685092091560364, -0.9211413264274597, 0.08702549338340759, -0.0036849677562713623, -0.08271908760070801, 0.039383652788764656, -0.19462336028326624, 0.9800866850195978,0.0008936837455894917,-0.32733154296875,-0.0817413330078125,-1.011016845703125
20230421-1511,2023-04-21 15:11:50,u10, 191,100,movements,wr-su, lt, d,957610.0986066668, -0.39801689553320435, 0.08885019048822355, 0.013832984262802857, 0.8533375859260559, -0.5620138645172119, -0.7513566017150879, -0.3860621452331543, -0.08873333781957626, -0.9181951880455017, 0.12306162714958191, 0.035098686814308167, -0.018557071685791016, 0.04489892771196407, -0.19719655983026804, 0.9793332741525935,-0.002006389839228072,-0.2716064453125,-0.067779541015625,-0.973846435546875
20230421-1511,2023-04-21 15:11:50,u10, 192,100,movements,wr-su, lt, d,957610.1086286667, -0.4031883146224817, 0.09899707828383765, 0.01029490538234494, 0.7408539056777954, -0.5316101312637329, -0.6812265515327454, -0.3904319405555725, -0.09883545339107513, -0.9153110980987549, 0.1312156319618225, 0.03638123720884323, 0.012036621570587158, 0.049505096934473504, -0.19973403450670357, 0.9785866650678785,-0.004869975963643978,-0.2603912353515625,-0.051116943359375,-0.9102630615234375
20230421-1511,2023-04-21 15:11:50,u10, 193,100,movements,wr-su, lt, d,957610.1186506667, -0.4081025150809389, 0.108092425464149, 0.0070033643969372224, 0.6527426838874817, -0.5191529393196106, -0.6345852613449097, -0.3945521414279938, -0.107882060110569, -0.9125185012817383, 0.12099254131317139, 0.0556359589099884, -0.05955785512924194, 0.053607405098282684, -0.20215584116741167, 0.9778561292829677,-0.00752240843961206,-0.26226806640625,-0.06597900390625,-0.9289703369140625
20230421-1511,2023-04-21 15:11:50,u10, 194,100,movements,wr-su, lt, d,957610.1286728751, -0.4128265484244528, 0.11589726645701202, 0.0035925518024750255, 0.5033102035522461, -0.49296584725379944, -0.602933406829834, -0.39850854873657227, -0.11563798040151596, -0.9098454713821411, 0.07467123866081238, 0.13057634234428406, -0.08345586061477661, 0.05705421373828593, -0.20450444945213622, 0.9771492082229571,-0.01011474897697041,-0.2962188720703125,-0.021759033203125,-0.997589111328125
20230421-1511,2023-04-21 15:11:50,u10, 195,100,movements,wr-su, lt, d,957610.1386948751, -0.4172975568141641, 0.12193657567295832, -0.0002768681595446232, 0.2807082533836365, -0.4956636428833008, -0.5826454758644104, -0.40228208899497986, -0.12163463234901428, -0.9073996543884277, 0.04087764024734497, 0.21070018410682678, -0.14808130264282227, 0.059580419730315574, -0.20676155566100352, 0.9764922862389387,-0.012756215940479414,-0.3469085693359375,0.051788330078125,-1.0066680908203125
20230421-1511,2023-04-21 15:11:50,u10, 196,100,movements,wr-su, lt, d,957610.148717875, -0.42178525963140684, 0.12617681373113485, -0.004609763927979039, 0.1552293598651886, -0.5062128901481628, -0.5431849956512451, -0.4061353802680969, -0.12584227323532104, -0.9051065444946289, 0.03144049644470215, 0.20119017362594604, -0.1661367416381836, 0.06116803889827219, -0.20905791410836252, 0.9758661705952874,-0.015447008755159725,-0.368194580078125,0.1035614013671875,-1.0837860107421875
20230421-1511,2023-04-21 15:11:50,u10, 197,100,movements,wr-su, lt, d,957610.1587398751, -0.42631632897807925, 0.12907317953965994, -0.009263602954151717, -0.02647731639444828, -0.5165867209434509, -0.5361318588256836, -0.41007983684539795, -0.12871508300304413, -0.9029213190078735, 0.0013731718063354492, 0.09053760766983032, -0.11993628740310669, 0.06205372339618127, -0.21139693689185976, 0.9752593625994237,-0.01816047546192835,-0.3883819580078125,0.0188751220703125,-1.05126953125
20230421-1511,2023-04-21 15:11:50,u10, 198,100,movements,wr-su, lt, d,957610.168761875, -0.4307006717997279, 0.12964676461972238, -0.015094306968751863, -0.37871262431144714, -0.5117285847663879, -0.5622214078903198, -0.4140037000179291, -0.1292838752269745, -0.9010475277900696, -0.03790062665939331, -0.005374938249588013, 0.02301102876663208, 0.06167057842795673, -0.21371240111490572, 0.9747175221884254,-0.021199268163892643,-0.4339752197265625,-0.0871124267578125,-0.95947265625
20230421-1511,2023-04-21 15:11:50,u10, 199,100,movements,wr-su, lt, d,957610.1787838751, -0.4350320924431681, 0.12662261803723274, -0.022902901645088826, -0.8128224611282349, -0.5607230067253113, -0.5787330269813538, -0.41806548833847046, -0.12628452479839325, -0.8995962738990784, -0.03187045454978943, -0.10287196934223175, 0.11709505319595337, 0.05930785920200798, -0.21606581942836492, 0.9742599742212673,-0.0248118366352077,-0.458221435546875,-0.1828460693359375,-0.81463623046875
20230421-1511,2023-04-21 15:11:50,u10, 200,100,movements,wr-su, lt, d,957610.188805875, -0.4398283524565989, 0.12024502972805748, -0.032242744632751244, -1.1020090579986572, -0.6210473775863647, -0.551963210105896, -0.42270970344543457, -0.11995547264814377, -0.898291289806366, -0.018345624208450317, -0.17032772302627563, 0.10210293531417847, 0.05512126548698538, -0.21866871325048762, 0.9738150496632934,-0.028809872615268444,-0.441162109375,-0.2695159912109375,-0.7800750732421875
20230421-1511,2023-04-21 15:11:51,u10, 201,100,movements,wr-su, lt, d,957610.1988278751, -0.4449181150935977, 0.11217550788809301, -0.04202404764813318, -1.155068039894104, -0.619763970375061, -0.5079648494720459, -0.4276789724826813, -0.111940398812294, -0.8969727158546448, -0.03885853290557861, -0.111356720328331, 0.058364927768707275, 0.050036658632529804, -0.22138197527093229, 0.9733492601068378,-0.03282586431817823,-0.4505767822265625,-0.273956298828125,-0.8211822509765625
20230421-1511,2023-04-21 15:11:51,u10, 202,100,movements,wr-su, lt, d,957610.208849875, -0.4501735618969324, 0.10478594022092515, -0.051022577344165126, -0.9193971157073975, -0.619996190071106, -0.462687224149704, -0.4327351450920105, -0.10459428280591965, -0.8954330086708069, -0.051624596118927, 0.016291670501232147, 0.02806246280670166, 0.04534591196176842, -0.22411432512635635, 0.9728222582662603,-0.036515427129011374,-0.48016357421875,-0.1540374755859375,-0.8513031005859375
20230421-1511,2023-04-21 15:11:51,u10, 203,100,movements,wr-su, lt, d,957610.2188728751, -0.45576775708419365, 0.09992365955315974, -0.0584518177347624, -0.5873046517372131, -0.6484254598617554, -0.4401797950267792, -0.4379562735557556, -0.09975745528936386, -0.8934443593025208, -0.025865167379379272, 0.09215857833623886, -0.04520004987716675, 0.04203568446040861, -0.22695997440615792, 0.9721859751334829,-0.03970843662077092,-0.4770355224609375,-0.03826904296875,-0.894683837890625
20230421-1511,2023-04-21 15:11:51,u10, 204,100,movements,wr-su, lt, d,957610.228894875, -0.4618664914342401, 0.09767950430935082, -0.06444127079575858, -0.36288943886756897, -0.687978208065033, -0.4295573830604553, -0.44349560141563416, -0.0975242480635643, -0.8909549117088318, -0.008866459131240845, 0.0724540576338768, -0.06004905700683594, 0.040134860645941385, -0.23002550164008798, 0.9714278179666239,-0.042490955811671324,-0.455078125,-0.0036773681640625,-0.963653564453125
20230421-1511,2023-04-21 15:11:51,u10, 205,100,movements,wr-su, lt, d,957610.2389168751, -0.46823690789391925, 0.09690084706021586, -0.0696418569294441, -0.25930285453796387, -0.6926549673080444, -0.4172823429107666, -0.449196457862854, -0.09674926847219467, -0.8881791234016418, -0.011374861001968384, -0.010916747152805328, -0.008396804332733154, 0.03901481989001211, -0.23321296267019231, 0.9705976997842624,-0.045052991343331704,-0.455841064453125,-0.062408447265625,-0.9265899658203125
20230421-1511,2023-04-21 15:11:51,u10, 206,100,movements,wr-su, lt, d,957610.248938875, -0.47479093017625623, 0.09651811108847196, -0.07436773591758604, -0.2502441108226776, -0.7082605361938477, -0.3796316385269165, -0.4550248086452484, -0.09636832773685455, -0.8852488994598389, 0.009697020053863525, -0.07053231447935104, 0.03260302543640137, 0.038122547290022374, -0.23647881677381952, 0.9697294102274103,-0.04742753329073674,-0.45709228515625,-0.14532470703125,-0.875396728515625
20230421-1511,2023-04-21 15:11:51,u10, 207,100,movements,wr-su, lt, d,957610.2589608751, -0.4815640827339552, 0.09582089525586351, -0.07871861033037343, -0.24969631433486938, -0.7300941944122314, -0.3250733017921448, -0.46104127168655396, -0.09567432850599289, -0.8822059631347656, 0.05714106559753418, -0.05381603538990021, 0.0362587571144104, 0.03710198122414578, -0.23983421766936722, 0.9688367837381106,-0.04958175327384616,-0.4249114990234375,-0.1673431396484375,-0.8363037109375
20230421-1511,2023-04-21 15:11:51,u10, 208,100,movements,wr-su, lt, d,957610.268982875, -0.4885573171018791, 0.09510353389669929, -0.08264805936468352, -0.27460935711860657, -0.7417644262313843, -0.2975151240825653, -0.46723151206970215, -0.09496023505926132, -0.879020631313324, 0.06888556480407715, 0.003941565752029419, 0.00534820556640625, 0.036102944838469625, -0.24328226312771764, 0.9679128444352297,-0.05152703446754065,-0.3931732177734375,-0.1242218017578125,-0.868438720703125
20230421-1511,2023-04-21 15:11:51,u10, 209,100,movements,wr-su, lt, d,957610.2790048751, -0.49560228516274735, 0.09389985883760019, -0.08659043039386856, -0.28562286496162415, -0.7360857725143433, -0.27463990449905396, -0.47346654534339905, -0.09376192837953568, -0.8758071064949036, 0.05392608046531677, 0.07122469693422318, 0.0012496709823608398, 0.03485231871847992, -0.2467422865831294, 0.9669800350077195,-0.05341390517262908,-0.4097747802734375,-0.049285888671875,-0.8656463623046875
20230421-1511,2023-04-21 15:11:51,u10, 210,100,movements,wr-su, lt, d,957610.289027875, -0.5025906995439321, 0.0930418824637847, -0.0900883651079222, -0.2059321403503418, -0.7208738327026367, -0.25027579069137573, -0.4796140193939209, -0.09290769696235657, -0.8725472092628479, 0.03103610873222351, 0.03663328289985657, -0.0258750319480896, 0.03381309844430483, -0.2501661101089629, 0.9660411799641813,-0.055119394076664135,-0.4312286376953125,-0.030792236328125,-0.892913818359375
20230421-1511,2023-04-21 15:11:51,u10, 211,100,movements,wr-su, lt, d,957610.299049875, -0.509407552653719, 0.09266565402704355, -0.09308009348900746, -0.14538171887397766, -0.6962406635284424, -0.23510536551475525, -0.4855678677558899, -0.09253308922052383, -0.86928790807724, 0.019411802291870117, 0.015872932970523834, -0.018041133880615234, 0.033064102418367255, -0.25350108780044156, 0.9651098118804403,-0.05663114320577733,-0.461578369140625,-0.0755157470703125,-0.8914642333984375
20230421-1511,2023-04-21 15:11:51,u10, 212,100,movements,wr-su, lt, d,957610.3090718751, -0.5159769253543546, 0.09303825949062024, -0.09540431278927965, -0.021297011524438858, -0.6613505482673645, -0.20482197403907776, -0.4912509620189667, -0.09290409088134766, -0.8660492300987244, 0.031030595302581787, 0.00957583636045456, -0.02399587631225586, 0.032759452096782396, -0.2567142276228823, 0.9641946409446519,-0.0579070286093758,-0.4637603759765625,-0.0734710693359375,-0.8881378173828125
20230421-1511,2023-04-21 15:11:51,u10, 213,100,movements,wr-su, lt, d,957610.319093875, -0.5223575200926155, 0.09429892169559043, -0.0969633215534186, 0.08928222954273224, -0.6371400356292725, -0.18372680246829987, -0.4967080056667328, -0.09415923058986664, -0.8627949953079224, 0.0054512619972229, -0.030077844858169556, -0.027891039848327637, 0.032979969354174556, -0.2598361517373977, 0.9632889363116706,-0.05892318853752067,-0.4697723388671875,-0.1047821044921875,-0.891845703125
20230421-1511,2023-04-21 15:11:51,u10, 214,100,movements,wr-su, lt, d,957610.3291158751, -0.5284923842026257, 0.096487990677041, -0.0977668045541438, 0.19091796875, -0.6028377413749695, -0.16658169031143188, -0.5018866062164307, -0.09633834660053253, -0.8595514893531799, -0.007756948471069336, -0.06615250557661057, -0.02176564931869507, 0.03374824178533695, -0.26284084695743376, 0.9623993710999277,-0.05969348232290454,-0.5070343017578125,-0.1446533203125,-0.888427734375
20230421-1511,2023-04-21 15:11:51,u10, 215,100,movements,wr-su, lt, d,957610.339137875, -0.5343911004353616, 0.09897708676732754, -0.09795731012437955, 0.2134629637002945, -0.5776724219322205, -0.12295006215572357, -0.5068244338035583, -0.09881556034088135, -0.8563670516014099, 7.998943328857422e-05, -0.04875218868255615, 0.008054673671722412, 0.03474503143891201, -0.2657240214112131, 0.961539655996461,-0.06020929222361768,-0.5081024169921875,-0.16314697265625,-0.8644866943359375
20230421-1511,2023-04-21 15:11:51,u10, 216,100,movements,wr-su, lt, d,957610.3491598751, -0.5400243719778955, 0.10136898439388692, -0.09772759269360612, 0.2148526906967163, -0.5392768383026123, -0.0785980150103569, -0.5115175247192383, -0.10119546949863434, -0.853293240070343, -0.007922232151031494, 0.0055533722043037415, -0.004830539226531982, 0.035756714938778876, -0.2684675747799373, 0.960721108119111,-0.060511974816591624,-0.5109405517578125,-0.122833251953125,-0.8470916748046875
20230421-1511,2023-04-21 15:11:51,u10, 217,100,movements,wr-su, lt, d,957610.359182875, -0.5452046220043306, 0.10324695844172804, -0.09731536629124567, 0.13314184546470642, -0.4878765344619751, -0.042616575956344604, -0.5158314108848572, -0.10306362062692642, -0.8504679799079895, -0.008353769779205322, 0.051610976457595825, -0.024409890174865723, 0.03655839902265439, -0.270978749810319, 0.9599764401079622,-0.06065645075313668,-0.525787353515625,-0.0722808837890625,-0.86993408203125
20230421-1511,2023-04-21 15:11:51,u10, 218,100,movements,wr-su, lt, d,957610.3692048751, -0.5498478917642251, 0.10404947613890037, -0.09707344870581149, 0.03072413057088852, -0.4356415867805481, 0.006991401314735413, -0.5197314023971558, -0.10386183112859726, -0.8479928970336914, 0.02644526958465576, 0.06695081293582916, -0.035964012145996094, 0.0368360160999266, -0.2732154066514084, 0.9593267946976143,-0.06073280897998614,-0.5116729736328125,-0.0366363525390625,-0.8809967041015625
20230421-1511,2023-04-21 15:11:51,u10, 219,100,movements,wr-su, lt, d,957610.379226875, -0.5539650887721033, 0.10395586803709239, -0.09662243341735467, -0.007020583841949701, -0.3805769979953766, 0.07178743928670883, -0.5232234597206116, -0.1037687286734581, -0.8458541631698608, 0.05317646265029907, 0.038567915558815, -0.03737032413482666, 0.036728031043681754, -0.2751798958837324, 0.9587789971238228,-0.060579645121004645,-0.476959228515625,-0.0526123046875,-0.8832550048828125
20230421-1511,2023-04-21 15:11:51,u10, 220,100,movements,wr-su, lt, d,957610.3892488751, -0.5575949516800041, 0.1031074362526367, -0.09609130982372213, -0.08388173580169678, -0.34524697065353394, 0.10848446935415268, -0.5263367295265198, -0.10292483866214752, -0.8440237641334534, 0.048736631870269775, 0.07710696756839752, -0.04419034719467163, 0.03628445135509484, -0.27689630717358893, 0.9583206943300661,-0.06027628318870336,-0.4727020263671875,-0.052398681640625,-0.8875732421875
20230421-1511,2023-04-21 15:11:51,u10, 221,100,movements,wr-su, lt, d,957610.399270875, -0.5608666210886984, 0.10216032554907835, -0.0948358907372166, 0.04918283969163895, -0.3040337562561035, 0.19026775658130646, -0.5291469097137451, -0.1019827127456665, -0.8423793911933899, 0.04490923881530762, 0.037850022315979004, -0.020978093147277832, 0.03590632282026695, -0.27842598939961494, 0.9579336882417473,-0.059604641261694104,-0.479736328125,-0.0249786376953125,-0.879241943359375
20230421-1511,2023-04-21 15:11:51,u10, 222,100,movements,wr-su, lt, d,957610.4092928751, -0.5639203189110265, 0.1020270195821973, -0.09223805344550676, 0.20017625391483307, -0.2514674663543701, 0.2641032338142395, -0.5317240953445435, -0.10185009986162186, -0.8407711386680603, 0.010682165622711182, -0.016924314200878143, -0.013095438480377197, 0.0361148822608663, -0.27983952292580067, 0.9575882675803759,-0.05839726940123084,-0.498199462890625,-0.1004180908203125,-0.865875244140625
20230421-1511,2023-04-21 15:11:51,u10, 223,100,movements,wr-su, lt, d,957610.419314875, -0.5666554073719643, 0.10249470217992131, -0.08840176767645823, 0.26033440232276917, -0.21577206254005432, 0.3292990028858185, -0.533996045589447, -0.10231534391641617, -0.8392733931541443, -0.022919297218322754, -0.04642733931541443, 0.009012162685394287, 0.0367983582213072, -0.28108574597946423, 0.9573006408691226,-0.056675158938496846,-0.539764404296875,-0.1339111328125,-0.834442138671875
20230421-1511,2023-04-21 15:11:51,u10, 224,100,movements,wr-su, lt, d,957610.4293378751, -0.5690802902220806, 0.10262181800235648, -0.08392273286602614, 0.24534407258033752, -0.17586512863636017, 0.4145548343658447, -0.5360226035118103, -0.10244178771972656, -0.8379650712013245, -0.0419345498085022, -0.025869369506835938, 0.007566511631011963, 0.0374225253980409, -0.28216488607656026, 0.9570798983602619,-0.05459413675997895,-0.5726318359375,-0.146484375,-0.8290863037109375
20230421-1511,2023-04-21 15:11:51,u10, 225,100,movements,wr-su, lt, d,957610.439359875, -0.5710033451795272, 0.10190117599910122, -0.0787797853437586, 0.15963369607925415, -0.1053914949297905, 0.5237894654273987, -0.5376728177070618, -0.10172491520643234, -0.8369945883750916, -0.006791353225708008, 0.024378105998039246, -0.014232158660888672, 0.037752615649320136, -0.2829795647498783, 0.9569671236670764,-0.052068934962251436,-0.566558837890625,-0.1073760986328125,-0.8393707275390625
20230421-1511,2023-04-21 15:11:51,u10, 226,100,movements,wr-su, lt, d,957610.4493818751, -0.572225339041207, 0.09916787117695526, -0.07337452856968028, -0.02700783684849739, -0.031105007976293564, 0.6790891289710999, -0.5388437509536743, -0.09900540858507156, -0.8365675806999207, 0.03429657220840454, 0.13356655836105347, -0.04345250129699707, 0.0371777554894223, -0.2834325713308468, 0.957011307332227,-0.049123404612938654,-0.522705078125,-0.026092529296875,-0.86358642578125
20230421-1511,2023-04-21 15:11:51,u10, 227,100,movements,wr-su, lt, d,957610.459403875, -0.5727448486152381, 0.09498385928518567, -0.06708878525097864, 0.018921304494142532, 0.051915306597948074, 0.8162954449653625, -0.5394980311393738, -0.09484110027551651, -0.8366283178329468, 0.029122114181518555, 0.1633835881948471, -0.06438785791397095, 0.0360521044525814, -0.28352438955135273, 0.9572043842248265,-0.045538649855447214,-0.495208740234375,0.07196044921875,-0.897918701171875
20230421-1511,2023-04-21 15:11:51,u10, 228,100,movements,wr-su, lt, d,957610.4694258751, -0.5727004657344528, 0.09074923668206641, -0.05953504974717976, 0.077297642827034, 0.08544876426458359, 0.9009965658187866, -0.5396737456321716, -0.09062472730875015, -0.8369823098182678, -0.03767305612564087, 0.07115451991558075, -0.0023883581161499023, 0.03509477435099835, -0.28333231264930403, 0.957487879692355,-0.041327947808427426,-0.543914794921875,0.0309906005859375,-0.8733673095703125
20230421-1511,2023-04-21 15:11:51,u10, 229,100,movements,wr-su, lt, d,957610.479447875, -0.5725122947255616, 0.08665509755730505, -0.05109006365129466, 0.13248206675052643, 0.10484643280506134, 0.9464476704597473, -0.5397127270698547, -0.08654668927192688, -0.8373886942863464, -0.06697678565979004, -0.025025583803653717, 0.003801107406616211, 0.034332480671082986, -0.2830669884572776, 0.9577823600009617,-0.03670615085381415,-0.5964202880859375,-0.072479248046875,-0.8265380859375
20230421-1511,2023-04-21 15:11:51,u10, 230,100,movements,wr-su, lt, d,957610.4894698751, -0.5720951880158975, 0.08280699213342821, -0.04219938131988158, 0.18438641726970673, 0.12620152533054352, 0.9658182859420776, -0.5395396947860718, -0.08271238952875137, -0.8378875851631165, -0.044994056224823, -0.041356831789016724, -0.002185046672821045, 0.033752943520325956, -0.28269587053267903, 0.9580846235169984,-0.03190007269397765,-0.6039276123046875,-0.1251220703125,-0.83544921875
20230421-1511,2023-04-21 15:11:51,u10, 231,100,movements,wr-su, lt, d,957610.4994918751, -0.5714340931422878, 0.07905038456112785, -0.032797131064231676, 0.17570742964744568, 0.16078852117061615, 1.0098581314086914, -0.5391498804092407, -0.07896807789802551, -0.8384994864463806, 0.014934122562408447, -0.04504010081291199, -0.00918722152709961, 0.033289817308744016, -0.28220920105858815, 0.9583989121863183,-0.026856371693947945,-0.55322265625,-0.1266021728515625,-0.8506011962890625
20230421-1511,2023-04-21 15:11:51,u10, 232,100,movements,wr-su, lt, d,957610.509514875, -0.5704310072645163, 0.07444296104387509, -0.02349163892632828, 0.04687810316681862, 0.17708228528499603, 1.046114206314087, -0.5384992957115173, -0.07437422126531601, -0.8393372297286987, 0.050141751766204834, 0.0050077736377716064, 0.002743661403656006, 0.03240457366761789, -0.28156941739783564, 0.9587471904868066,-0.02173289067703354,-0.50390625,-0.0992889404296875,-0.84051513671875
20230421-1511,2023-04-21 15:11:51,u10, 233,100,movements,wr-su, lt, d,957610.5195368751, -0.5692015917631601, 0.06880652505198369, -0.014170045193625759, 0.0007622754201292992, 0.20050877332687378, 1.1253246068954468, -0.5376843810081482, -0.0687522441148758, -0.840338408946991, 0.0762891173362732, 0.011882737278938293, 0.003241240978240967, 0.031023910245410413, -0.28083503754857575, 0.95911337948709,-0.016453343854862194,-0.4733734130859375,-0.050323486328125,-0.8356475830078125
20230421-1511,2023-04-21 15:11:51,u10, 234,100,movements,wr-su, lt, d,957610.529558875, -0.5677823908051377, 0.06226084020957166, -0.004610333568132461, -0.09124267846345901, 0.20145367085933685, 1.1701533794403076, -0.5367217659950256, -0.06222062185406685, -0.8414620161056519, 0.08074337244033813, -0.03436750918626785, -0.005248129367828369, 0.02923410295393649, -0.28002562803419473, 0.9594850383242365,-0.010929811106237905,-0.4539947509765625,-0.077484130859375,-0.8417510986328125
20230421-1511,2023-04-21 15:11:51,u10, 235,100,movements,wr-su, lt, d,957610.5395808751, -0.5663342368918511, 0.05496402348050589, 0.004856349380245597, -0.1046929731965065, 0.19627967476844788, 1.2162625789642334, -0.5357319712638855, -0.054936353117227554, -0.842599093914032, 0.06634104251861572, -0.06707292795181274, -0.003393888473510742, 0.027062322730807553, -0.2792276504942984, 0.959828574929197,-0.005346840732857218,-0.4629058837890625,-0.11090087890625,-0.8453369140625
20230421-1511,2023-04-21 15:11:51,u10, 236,100,movements,wr-su, lt, d,957610.549602875, -0.5650304143107697, 0.047933298038625144, 0.015405681656574749, 0.06935252249240875, 0.17150534689426422, 1.311160922050476, -0.5348265171051025, -0.04791494458913803, -0.8436022400856018, 0.057562053203582764, -0.04446176439523697, 0.004689335823059082, 0.025160360179692448, -0.2785064347954413, 0.9601044309451027,0.0007148877989018275,-0.4690399169921875,-0.123626708984375,-0.844482421875
20230421-1511,2023-04-21 15:11:51,u10, 237,100,movements,wr-su, lt, d,957610.5596248751, -0.5642001270226653, 0.042065299869638174, 0.02744845443052569, 0.20723529160022736, 0.09379617869853973, 1.3315857648849487, -0.5342670679092407, -0.042052894830703735, -0.8442690968513489, -0.007389485836029053, 0.09519925713539124, 0.021362602710723877, 0.024017392952708827, -0.278008312785997, 0.9602504516980883,0.007324474471617432,-0.4993896484375,-0.028167724609375,-0.831298828125
20230421-1511,2023-04-21 15:11:51,u10, 238,100,movements,wr-su, lt, d,957610.569646875, -0.5641276885067429, 0.03722880729946807, 0.04001281109510637, 0.3130492568016052, 0.022058609873056412, 1.3094044923782349, -0.5343083739280701, -0.03722020983695984, -0.8444697856903076, -0.07627207040786743, 0.11719152331352234, 0.027712583541870117, 0.023441424281131606, -0.2778769552150652, 0.9602281672077445,0.014031432730300157,-0.587066650390625,0.10791015625,-0.8155670166015625
20230421-1511,2023-04-21 15:11:51,u10, 239,100,movements,wr-su, lt, d,957610.5796698751, -0.5648339375610913, 0.0327789087549584, 0.05286517786266505, 0.2697151005268097, -0.07368043065071106, 1.331676721572876, -0.5349879860877991, -0.03277304023504257, -0.8442237377166748, -0.031051993370056152, -0.08963295817375183, 0.01457291841506958, 0.023098304060460925, -0.27812693228101926, 0.960040970761348,0.020813513566626102,-0.5972137451171875,-0.0203704833984375,-0.8257293701171875
20230421-1511,2023-04-21 15:11:51,u10, 240,100,movements,wr-su, lt, d,957610.589691875, -0.566464218745362, 0.0269609196976724, 0.06491670434716035, 0.03123648650944233, -0.18034270405769348, 1.31776762008667, -0.5364568829536438, -0.02695765346288681, -0.843497097492218, 0.012500524520874023, -0.1305283010005951, 0.06061440706253052, 0.02200455928092526, -0.2788678212753449, 0.9596865449840223,0.02739166055445766,-0.53924560546875,-0.1695404052734375,-0.8125762939453125
20230421-1511,2023-04-21 15:11:51,u10, 241,100,movements,wr-su, lt, d,957610.5997138751, -0.5691162980371485, 0.01930686456543308, 0.0755123706269523, -0.18267740309238434, -0.3033146858215332, 1.2862656116485596, -0.5387874245643616, -0.01930566504597664, -0.8422205448150635, 0.03887897729873657, -0.08610204607248306, 0.09199166297912598, 0.019854890951739815, -0.2801705242034894, 0.9591593599840719,0.033519485885194863,-0.510772705078125,-0.1260528564453125,-0.7601318359375
20230421-1511,2023-04-21 15:11:51,u10, 242,100,movements,wr-su, lt, d,957610.609735875, -0.5729323116789737, 0.010046162921567887, 0.08473820920135669, -0.3771015703678131, -0.43557605147361755, 1.263221263885498, -0.5420711040496826, -0.010045994073152542, -0.8402726054191589, 0.03755450248718262, -0.07105446606874466, 0.11770796775817871, 0.016782295955651796, -0.2821029259265381, 0.9584355766754921,0.03921176108824292,-0.4975738525390625,-0.0950469970703125,-0.743865966796875
20230421-1511,2023-04-21 15:11:51,u10, 243,100,movements,wr-su, lt, d,957610.6197578751, -0.5782159627427867, -0.0007711826541267745, 0.09263859805815813, -0.5760128498077393, -0.6179237365722656, 1.2317835092544556, -0.5465306043624878, 0.0007711825892329216, -0.8374387621879578, 0.023871302604675293, -0.053490299731492996, 0.17297959327697754, 0.01283159423206388, -0.2848086522531453, 0.9574653697838774,0.04449091804240712,-0.513427734375,-0.066131591796875,-0.6915435791015625
20230421-1511,2023-04-21 15:11:51,u10, 244,100,movements,wr-su, lt, d,957610.629779875, -0.5852845706714034, -0.013174486917651383, 0.09894223713189713, -0.8043503761291504, -0.7986511588096619, 1.1846060752868652, -0.5523886680603027, 0.013174105435609818, -0.833482563495636, -0.004374027252197266, -0.04306607320904732, 0.20041072368621826, 0.007966030323843947, -0.2884358734300989, 0.9561988292858112,0.04924547562853612,-0.5384979248046875,-0.0411834716796875,-0.6432037353515625
20230421-1511,2023-04-21 15:11:51,u10, 245,100,movements,wr-su, lt, d,957610.6398018751, -0.5941241243651344, -0.026956580767932364, 0.10365509607388478, -0.968681812286377, -0.9713422656059265, 1.1299269199371338, -0.5595797896385193, 0.02695331536233425, -0.828338086605072, -0.011907637119293213, -0.0555482842028141, 0.15756171941757202, 0.0022921346410336753, -0.29296026096228084, 0.9546255234785352,0.0534706935126146,-0.5666351318359375,-0.0240631103515625,-0.6429443359375
